Longitude,Latitude,Speed,Distance,Time,Acc X,Acc Y,Acc Z,Heading,gyro_x,gyro_y,gyro_z
73.83132386952639,18.518700264394283,1.29,8312031.0,17-14-53,0.046402127,-0.13717842,-0.28293374,265.0,-0.03630576,-0.008226318,-0.0234165
73.83132386952639,18.518700264394283,1.29,8312031.0,17-14-53,-0.13697833,0.365242,0.108888835,266.0,0.035776343,-0.00944805,0.009570222
73.83132386952639,18.518700264394283,1.29,8312031.0,17-14-53,-0.045354933,-0.10334015,-0.5349848,266.0,-0.011871147,-0.027774006,0.0034615695
73.83120140992105,18.51871434599161,0.31,13.024235,17-14-53,0.24208939,0.07276058,-0.3503963,266.0,-0.0179798,0.0027692558,-0.005090542
73.83120140992105,18.51871434599161,0.31,13.024235,17-14-53,-0.23023361,0.011764526,-0.4940847,266.0,0.011341732,0.003380121,0.006515894
73.83120140992105,18.51871434599161,0.31,13.024235,17-14-53,0.08243817,1.4781952E-4,-0.028262824,266.0,-0.02836451,0.003380121,-2.0362064E-4
73.8311518728733,18.51866954471916,0.94,18.47687,17-14-53,-0.056366593,0.10904598,-0.4919038,266.0,0.042495858,-2.850704E-4,0.01628974
73.8311518728733,18.51866954471916,0.94,18.47687,17-14-53,0.18880838,-0.054860115,-0.5369395,266.0,3.461577E-4,0.003380121,-8.144863E-4
73.8311518728733,18.51866954471916,0.94,18.47687,17-14-53,-0.25155643,0.38398552,0.5004583,266.0,-0.0027081687,3.257948E-4,-0.014864387
73.8311518728733,18.51866954471916,0.94,18.47687,17-14-54,0.07966614,0.3661871,-0.26299977,266.0,-0.02469932,0.0076561775,0.0022398382
73.8311518728733,18.51866954471916,0.94,18.47687,17-14-54,-0.35258022,0.084308624,0.09591478,266.0,0.003400484,-0.007004588,-2.0362064E-4
73.8311518728733,18.51866954471916,0.94,18.47687,17-14-54,0.3017167,0.2908764,-0.081077844,266.0,0.0052330797,-0.021665353,0.010181088
73.8311518728733,18.51866954471916,0.94,18.47687,17-14-54,-0.19919643,0.018981934,-0.48365974,266.0,0.025391633,0.019873483,-0.014864387
73.8311518728733,18.51866954471916,0.94,18.47687,17-14-54,0.2756819,0.27888393,-0.1361936,266.0,-0.00637336,-0.014334971,-0.008755736
73.8311518728733,18.51866954471916,0.94,18.47687,17-14-54,-0.32408932,0.08474922,0.31507075,266.0,-0.021034125,0.014375695,-0.02097304
73.8311518728733,18.51866954471916,0.94,18.47687,17-14-54,0.16223773,0.25232315,-0.09880817,266.0,0.013785193,-0.018000163,0.01628974
73.8311518728733,18.51866954471916,0.94,18.47687,17-14-54,0.26187864,0.070575714,0.5269635,266.0,-0.02164499,0.0125431,-0.003257949
73.8311518728733,18.51866954471916,0.94,18.47687,17-14-54,0.038296193,0.028366089,-0.60834295,266.0,-0.0014864383,-0.019832758,0.0071267597
73.8311518728733,18.51866954471916,0.94,18.47687,17-14-54,-0.02491793,0.0952034,0.09804478,266.0,-0.02836451,0.017430022,-0.022194771
73.8311518728733,18.51866954471916,0.94,18.47687,17-14-55,-0.16710815,0.07774353,-0.13311142,266.0,0.019893846,-0.029606603,0.017511472
73.8311518728733,18.51866954471916,0.94,18.47687,17-14-55,0.13045359,0.09000492,-0.013187975,266.0,-0.030197106,0.0039909864,0.004072435
73.8311518728733,18.51866954471916,0.94,18.47687,17-14-55,-0.10519692,0.41327858,0.56875736,266.0,0.0400524,-2.850704E-4,0.018122334
73.8311518728733,18.51866954471916,0.94,18.47687,17-14-55,0.082155734,0.29388523,-0.08085868,266.0,-0.003929899,0.0046018516,-0.001425352
73.831243570894,18.518678680993617,0.29999998,8.808949,17-14-55,-0.12362328,-0.10850334,-0.53340137,266.0,-0.010038552,0.0027692558,-0.013642658
73.831243570894,18.518678680993617,0.29999998,8.808949,17-14-55,0.1650956,0.088819504,-0.55122054,266.0,-0.008205955,-0.025330545,-0.001425352
73.831243570894,18.518678680993617,0.29999998,8.808949,17-14-55,0.30374783,0.1982956,-0.052173853,266.0,-0.02836451,0.014986561,-0.014253523
73.831243570894,18.518678680993617,0.29999998,8.808949,17-14-55,-0.10489917,0.5086937,0.7172341,266.0,-0.0027081687,-0.027774006,0.017511472
73.831243570894,18.518678680993617,0.29999998,8.808949,17-14-55,-0.025553346,-0.062433243,-0.35601008,266.0,-0.03325143,-0.004561127,0.002850704
73.831243570894,18.518678680993617,0.29999998,8.808949,17-14-56,-0.20906462,0.30960464,0.8464087,266.0,0.0400524,-0.0027285311,0.010181088
73.831243570894,18.518678680993617,0.29999998,8.808949,17-14-56,0.2961942,0.4080057,0.37433657,266.0,-0.0106494175,-0.0033393968,-0.005090542
73.831243570894,18.518678680993617,0.29999998,8.808949,17-14-56,-0.07172933,0.43070984,0.6535668,266.0,-0.002097303,3.257948E-4,-0.014864387
73.831243570894,18.518678680993617,0.29999998,8.808949,17-14-56,0.22053897,0.53248024,-0.018536925,266.0,-0.013092878,0.014375695,-0.0038688146
73.831243570894,18.518678680993617,0.29999998,8.808949,17-14-56,-0.074118525,0.41080284,0.4842717,266.0,0.023559038,-0.014334971,0.0071267597
73.83125455118716,18.518684799782932,0.0,7.516884,17-14-56,-0.32017875,-8.764267E-4,-0.3847604,266.0,0.0040113493,-0.029606603,0.017511472
73.83125455118716,18.518684799782932,0.0,7.516884,17-14-56,0.3366438,0.27698612,0.6558815,266.0,-0.027753644,-0.008837184,0.0034615695
73.83125455118716,18.518684799782932,0.0,7.516884,17-14-56,0.20544767,-0.1219759,-0.7402514,266.0,0.009509136,0.0021583906,0.004683301
73.83125455118716,18.518684799782932,0.0,7.516884,17-14-56,0.18581736,-0.09549713,-0.6879712,266.0,-0.019201532,0.019262617,-0.026470827
73.83125455118716,18.518684799782932,0.0,7.516884,17-14-56,-0.21420127,0.056567192,-0.27275956,265.0,0.005843945,0.010099638,-0.01975131
73.83125455118716,18.518684799782932,0.0,7.516884,17-14-57,-0.047365814,-0.060162544,-0.5503361,266.0,-0.013092878,0.0015475252,-0.006923139
73.83125455118716,18.518684799782932,0.0,7.516884,17-14-57,-0.47196773,-0.023509026,-0.08763388,266.0,9.5702335E-4,-0.018000163,0.013235413
73.83125455118716,18.518684799782932,0.0,7.516884,17-14-57,0.23521182,0.38953876,0.29022154,266.0,-0.0069842255,-0.028384872,0.020565797
73.83125455118716,18.518684799782932,0.0,7.516884,17-14-57,0.25702196,0.16950798,0.4510206,266.0,-0.018590666,0.022316944,-0.022805637
73.83125455118716,18.518684799782932,0.0,7.516884,17-14-57,0.26217118,0.40703487,-0.021541387,266.0,-0.015536339,-0.007004588,-0.006923139
73.83125455118716,18.518684799782932,0.0,7.516884,17-14-57,0.09250185,0.25293922,0.2950994,266.0,-8.755727E-4,-0.01189151,0.004072435
73.83125455118716,18.518684799782932,0.0,7.516884,17-14-57,-0.29339424,0.14870548,-0.18823418,266.0,0.003400484,-0.028995737,0.012013681
73.83125455118716,18.518684799782932,0.0,7.516884,17-14-57,-0.04689601,-0.07190609,-0.4310136,266.0,0.012563462,0.021706078,-0.01975131
73.83125455118716,18.518684799782932,0.0,7.516884,17-14-57,0.19607788,0.15944195,-0.38593933,266.0,0.017450385,-0.010058914,0.013235413
73.83125455118716,18.518684799782932,0.0,7.516884,17-14-57,0.2934661,0.31112385,0.38200375,266.0,-0.027753644,0.0027692558,-0.012420926
73.83125455118716,18.518684799782932,0.0,7.516884,17-14-58,-0.18936004,0.3885603,0.4455676,266.0,0.01806125,9.3666E-4,0.008348491
73.83125455118716,18.518684799782932,0.0,7.516884,17-14-58,-0.10397357,-0.062888145,-0.6625304,266.0,-0.034473162,-0.0039502615,0.006515894
73.83125455118716,18.518684799782932,0.0,7.516884,17-14-58,0.24163264,0.24310112,0.324336,266.0,0.1121345,0.06263405,-0.061290145
73.83125455118716,18.518684799782932,0.0,7.516884,17-14-58,0.8521958,0.12617207,-0.26309037,267.0,-0.007595091,-0.06381506,0.023009256
73.83125455118716,18.518684799782932,0.0,7.516884,17-14-58,0.66018033,-0.19104195,0.56379825,266.0,0.061432682,-0.040602177,0.013235413
73.83125455118716,18.518684799782932,0.0,7.516884,17-14-58,0.22298253,-0.45361614,0.009920508,266.0,-0.0069842255,-2.850704E-4,-0.020362174
73.83125455118716,18.518684799782932,0.0,7.516884,17-14-58,-0.497176,-0.083444595,0.21705459,266.0,-0.035694893,0.05835799,-0.039909862
73.83125455118716,18.518684799782932,0.0,7.516884,17-14-58,-0.4962612,0.012722015,-0.48503333,266.0,0.017450385,0.021095213,0.006515894
73.83125455118716,18.518684799782932,0.0,7.516884,17-14-58,-0.068500996,-0.1338749,-0.03384322,266.0,-0.053409982,-0.013724105,0.013846278
73.83125455118716,18.518684799782932,0.0,7.516884,17-14-58,0.15402079,0.20352077,1.4167442,265.0,0.02172644,-0.084584475,-0.0099774655
73.83125455118716,18.518684799782932,0.0,7.516884,17-14-59,0.7506855,-0.2720747,-0.9040707,265.0,0.027224228,-0.078475825,0.09142617
73.83125455118716,18.518684799782932,0.0,7.516884,17-14-59,0.38148782,-0.1994791,-0.05475101,266.0,0.06693047,-0.016778432,-0.0038688146
73.83125455118716,18.518684799782932,0.0,7.516884,17-14-59,0.83853817,0.55496883,0.16803893,266.0,-0.08334238,-0.047932558,0.005905032
73.83125455118716,18.518684799782932,0.0,7.516884,17-14-59,-0.05677235,0.6164551,-0.060435474,266.0,-0.047301333,0.003380121,0.010181088
73.83125455118716,18.518684799782932,0.0,7.516884,17-14-59,0.07665464,0.51379204,-0.06914896,266.0,0.04371759,0.008267043,0.002850704
73.83125455118716,18.518684799782932,0.0,7.516884,17-14-59,0.20020434,0.49835205,0.32719898,266.0,0.022337306,0.021095213,-0.02097304
73.83125455118716,18.518684799782932,0.0,7.516884,17-14-59,-0.09600085,0.32653713,-0.5297674,266.0,0.04371759,-0.005171993,0.0071267597
73.83125455118716,18.518684799782932,0.0,7.516884,17-14-59,0.083458036,-0.12972641,0.17200375,266.0,0.0400524,0.0125431,-0.0063122734
73.83125455118716,18.518684799782932,0.0,7.516884,17-14-59,0.25539726,0.39161873,0.28465867,266.0,-0.038749218,0.006434447,0.004072435
73.83125455118716,18.518684799782932,0.0,7.516884,17-14-59,-0.3101559,0.11116505,0.8433026,266.0,0.019893846,-0.018000163,0.019954931
73.83125455118716,18.518684799782932,0.0,7.516884,17-15-00,0.031125009,0.38199234,0.5060697,266.0,0.03638721,-0.016778432,0.0052941665
73.83125455118716,18.518684799782932,0.0,7.516884,17-15-00,0.23976603,0.0106601715,-0.4034651,266.0,0.015617789,-0.010058914,0.010791954
73.83125455118716,18.518684799782932,0.0,7.516884,17-15-00,0.35993046,0.21360111,0.6396657,266.0,-0.02836451,-0.007004588,0.004683301
73.83125455118716,18.518684799782932,0.0,7.516884,17-15-00,0.21689585,0.3726921,0.057063952,266.0,0.0052330797,-0.015556702,0.015678875
73.83125455118716,18.518684799782932,0.0,7.516884,17-15-00,-0.2553907,-0.017567635,-0.24847618,266.0,-0.019201532,0.022316944,-0.027081693
73.83126410655677,18.518681447021663,0.71999997,6.64528,17-15-00,0.99516094,0.02801323,0.85310614,266.0,-0.06623815,-0.025330545,0.04255695
73.83126410655677,18.518681447021663,0.71999997,6.64528,17-15-00,0.09919959,-0.24751759,-0.07923661,265.0,-0.11022045,-0.03632612,0.029728778
73.83126410655677,18.518681447021663,0.71999997,6.64528,17-15-00,-0.023065895,0.016040802,-0.1491168,265.0,-0.078455456,-0.032050062,0.017511472
73.83126410655677,18.518681447021663,0.71999997,6.64528,17-15-00,-0.029303998,0.024905205,-0.8350772,265.0,-0.03997095,-0.005171993,0.023009256
73.83126410655677,18.518681447021663,0.71999997,6.64528,17-15-00,-0.45841098,0.21872616,-0.6872218,265.0,-0.008816821,0.010099638,-0.01730785
73.83126410655677,18.518681447021663,0.71999997,6.64528,17-15-01,-0.21089928,0.40770817,-0.73746794,266.0,-0.019812394,-0.005171993,-0.005090542
73.83126410655677,18.518681447021663,0.71999997,6.64528,17-15-01,-0.22850494,0.65848255,0.68240714,266.0,-0.018590666,-0.013724105,0.002850704
73.83126410655677,18.518681447021663,0.71999997,6.64528,17-15-01,-0.10522199,0.39763355,-0.26109073,266.0,0.026613362,9.3666E-4,0.004072435
73.83126410655677,18.518681447021663,0.71999997,6.64528,17-15-01,-0.18852432,0.09023857,-0.5349568,266.0,-2.6470795E-4,0.008267043,-0.024027366
73.83126410655677,18.518681447021663,0.71999997,6.64528,17-15-01,0.23198602,0.71213436,0.029490888,266.0,0.049826242,0.0027692558,0.0077376254
73.83126410655677,18.518681447021663,0.71999997,6.64528,17-15-01,0.2641237,0.46511364,0.26995444,266.0,-0.045468736,-0.0021176664,0.010791954
73.83126955479383,18.51868450641632,0.08,5.9945097,17-15-01,0.2199265,0.43661213,0.031523257,266.0,-0.008816821,-2.850704E-4,-0.00814487
73.83126955479383,18.51868450641632,0.08,5.9945097,17-15-01,-0.32431102,0.13946438,0.047087327,266.0,0.025391633,3.257948E-4,0.0016289726
73.83126955479383,18.51868450641632,0.08,5.9945097,17-15-01,-0.030770063,0.37284946,0.72371876,266.0,0.015006924,-0.016167566,0.004683301
73.83126955479383,18.51868450641632,0.08,5.9945097,17-15-01,0.16897783,0.2336607,0.10777825,266.0,-0.002097303,0.0046018516,-0.003257949
73.83126955479383,18.51868450641632,0.08,5.9945097,17-15-02,-0.13566181,-0.45367718,-0.087289006,265.0,-0.015536339,0.06996443,-0.060068414
73.83126955479383,18.51868450641632,0.08,5.9945097,17-15-02,-0.5190523,-0.05308914,-0.3850322,266.0,0.0021787537,0.017430022,-0.02097304
73.83126955479383,18.51868450641632,0.08,5.9945097,17-15-02,0.12000233,0.0383749,-0.11134207,266.0,0.046771914,-0.006393723,0.002850704
73.83126955479383,18.51868450641632,0.08,5.9945097,17-15-02,0.37422463,0.1118536,0.42311904,266.0,-0.02592105,-0.030828334,0.019344065
73.83126938715577,18.51869301404804,0.39,5.808555,17-15-02,-0.09103897,0.18900394,0.6423873,266.0,0.01806125,-0.035715256,0.01628974
73.83126938715577,18.51869301404804,0.39,5.808555,17-15-02,-0.082398504,-0.26002407,-0.41443068,266.0,-0.028975375,0.0027692558,-8.144863E-4
73.83126938715577,18.51869301404804,0.39,5.808555,17-15-02,0.21049967,0.1790371,-0.21662208,266.0,-0.040581815,0.014986561,-0.020362174
73.83126938715577,18.51869301404804,0.39,5.808555,17-15-02,2.6869535,-0.6823921,1.0060387,265.0,-0.022866722,0.07118616,0.17511469
73.83126938715577,18.51869301404804,0.39,5.808555,17-15-02,1.4372487,-0.9176645,0.837555,265.0,-0.046690468,-0.017389297,-0.017918713
73.83126938715577,18.51869301404804,0.39,5.808555,17-15-02,-0.2569529,0.4628029,0.48850134,266.0,-0.065627284,-0.06931284,0.08959357
73.83126938715577,18.51869301404804,0.39,5.808555,17-15-03,0.27618015,0.41086292,-0.4351602,266.0,-0.027753644,-0.055262942,0.046833
73.83126938715577,18.51869301404804,0.39,5.808555,17-15-03,-0.43071288,0.41470432,-1.065304,266.0,0.0021787537,0.019873483,-0.0075340047
73.83126938715577,18.51869301404804,0.39,5.808555,17-15-03,-0.14641105,0.54687595,-1.1249621,266.0,-0.017368935,-0.025330545,-2.0362064E-4
73.83126938715577,18.51869301404804,0.39,5.808555,17-15-03,0.1905654,0.49166775,-0.31658643,266.0,0.014396058,0.031479925,-0.039909862
73.83126938715577,18.51869301404804,0.39,5.808555,17-15-03,-0.3076248,0.23784542,-0.8455255,266.0,0.015006924,-0.02349795,0.0052941665
73.83126460947096,18.5186968697235,0.22,6.268602,17-15-03,-0.0022361875,-0.037659645,-0.8949417,266.0,0.03333288,0.02292781,-0.012420926
73.83126460947096,18.5186968697235,0.22,6.268602,17-15-03,0.094668806,0.35736084,1.0480933,266.0,0.09075422,0.008267043,-2.0362064E-4
73.83126460947096,18.5186968697235,0.22,6.268602,17-15-03,0.5131656,0.2576542,0.15773383,266.0,0.030889422,0.015597426,-0.008755736
73.83126460947096,18.5186968697235,0.22,6.268602,17-15-03,-0.034479678,0.24066257,0.65709317,266.0,0.03699807,0.008267043,-0.00814487
73.83126460947096,18.5186968697235,0.22,6.268602,17-15-03,0.19256568,0.2660036,0.09315525,266.0,-0.012482013,-0.025941411,4.07245E-4
73.83126460947096,18.5186968697235,0.22,6.268602,17-15-04,0.25359628,0.1786604,-0.05247718,266.0,0.044328455,-0.01311324,0.018122334
73.83126460947096,18.5186968697235,0.22,6.268602,17-15-04,0.17507339,0.08167839,0.2501847,266.0,-0.0033190334,0.008267043,-0.0020362176
73.83126460947096,18.5186968697235,0.22,6.268602,17-15-04,-0.20836781,-0.110860825,-0.24666646,266.0,-0.011260281,-0.007004588,-0.011199197
73.83126460947096,18.5186968697235,0.22,6.268602,17-15-04,0.13887778,0.06393623,-0.44992697,266.0,-0.02836451,-0.027774006,0.0010181069
73.83126502856612,18.518696995452046,0.0,6.2236047,17-15-04,0.17902708,0.2866726,0.4208172,266.0,-0.025310185,0.022316944,-0.022194771
73.83126502856612,18.518696995452046,0.0,6.2236047,17-15-04,-0.25581193,0.34508324,-0.059337735,266.0,-2.6470795E-4,-0.034493525,0.016900606
73.83126502856612,18.518696995452046,0.0,6.2236047,17-15-04,0.30429137,0.23855972,0.7041145,266.0,0.010730867,0.018040888,-0.016696984
73.83126502856612,18.518696995452046,0.0,6.2236047,17-15-04,0.0025521219,0.45019245,0.28767598,266.0,0.04127413,0.0027692558,0.012624547
73.83126502856612,18.518696995452046,0.0,6.2236047,17-15-04,0.17090684,-0.05319214,-0.6644389,266.0,-0.00637336,0.018040888,-0.028914288
73.83126502856612,18.518696995452046,0.0,6.2236047,17-15-04,-0.2187975,-0.20895958,-0.529654,266.0,0.027835093,0.01376483,-0.0020362176
73.83126502856612,18.518696995452046,0.0,6.2236047,17-15-05,0.0786784,0.34960365,-0.07200256,266.0,-0.0179798,0.010710504,4.07245E-4
73.83126502856612,18.518696995452046,0.0,6.2236047,17-15-05,-0.37240762,-0.09991169,-0.28951195,266.0,-0.013703742,-0.008226318,-0.0020362176
73.83126502856612,18.518696995452046,0.0,6.2236047,17-15-05,0.22603595,-0.20965672,-0.9122032,266.0,0.018672116,0.007045313,0.004072435
73.83126502856612,18.518696995452046,0.0,6.2236047,17-15-05,0.30752277,0.22572803,0.52806294,266.0,0.007676541,0.015597426,-0.022805637
73.83126502856612,18.518696995452046,0.0,6.2236047,17-15-05,-0.08279523,0.19590664,-0.37831894,266.0,-0.00637336,-0.013724105,0.008959357
73.83126502856612,18.518696995452046,0.0,6.2236047,17-15-05,0.30843753,-0.0036029816,-0.3531506,266.0,-0.0045407647,0.003380121,-0.016086118
73.83126502856612,18.518696995452046,0.0,6.2236047,17-15-05,-0.23870295,0.19325161,0.37065703,265.0,-0.007595091,0.0039909864,0.01628974
73.83126502856612,18.518696995452046,0.0,6.2236047,17-15-05,0.18943095,0.20858288,0.3696546,266.0,-0.0106494175,0.011932234,-0.005701408
73.83126502856612,18.518696995452046,0.0,6.2236047,17-15-05,-0.17200652,0.30761242,0.114511356,266.0,0.044328455,-0.0076154536,0.014457144
73.83126502856612,18.518696995452046,0.0,6.2236047,17-15-05,0.18034929,0.5370865,0.37733752,265.0,0.061432682,0.025982136,-0.01730785
73.83126502856612,18.518696995452046,0.0,6.2236047,17-15-06,-0.30731502,0.2678938,0.59055126,265.0,0.03638721,-0.012502376,0.025452718
73.83126502856612,18.518696995452046,0.0,6.2236047,17-15-06,-0.4135578,0.74351215,-1.1366554,265.0,0.104193255,0.03331252,-0.05029457
73.83126502856612,18.518696995452046,0.0,6.2236047,17-15-06,1.155187,-1.2701511,-0.77242935,265.0,-0.058296908,-0.07053457,0.069435015
73.83126502856612,18.518696995452046,0.0,6.2236047,17-15-06,0.035522312,0.23853683,-0.20318621,265.0,-0.057075176,0.12372057,-0.12604186
73.83126502856612,18.518696995452046,0.0,6.2236047,17-15-06,1.7717408,-1.1612349,-0.883582,265.0,0.027224228,-0.02349795,-0.0038688146
73.83126502856612,18.518696995452046,0.0,6.2236047,17-15-06,-1.8764416,0.9207382,-0.61749476,265.0,0.030889422,-0.044878233,0.010791954
73.83126502856612,18.518696995452046,0.0,6.2236047,17-15-06,0.8666458,-1.0466394,-2.1309454,265.0,0.0980846,0.06324492,-0.08205956
73.83126502856612,18.518696995452046,0.0,6.2236047,17-15-06,0.12823284,-0.15108585,-2.0418396,265.0,-0.014925473,-0.07114544,0.08165232
73.83126502856612,18.518696995452046,0.0,6.2236047,17-15-06,0.009335756,0.66491985,0.33379355,265.0,0.043106724,-0.008226318,-0.011810061
73.83126502856612,18.518696995452046,0.0,6.2236047,17-15-06,0.95309913,0.15045357,0.07271916,265.0,-0.013092878,-0.0577064,0.038891755
73.83126502856612,18.518696995452046,0.0,6.2236047,17-15-07,-0.6886053,0.27525902,0.47014502,265.0,0.04493932,0.019262617,-0.051516302
73.83126502856612,18.518696995452046,0.0,6.2236047,17-15-07,0.17839095,5.1116943E-4,-0.4000433,265.0,0.049215376,-0.043045636,-0.0063122734
73.83126502856612,18.518696995452046,0.0,6.2236047,17-15-07,0.002502501,0.038229942,-0.14854103,265.0,0.057156626,-0.025330545,-0.019140445
73.83126502856612,18.518696995452046,0.0,6.2236047,17-15-07,0.19378236,-0.034724236,-0.3258564,265.0,0.022337306,-0.038158715,-0.008755736
73.83126502856612,18.518696995452046,0.0,6.2236047,17-15-07,-0.10702458,-0.020804405,0.521224,265.0,-0.03997095,-0.03754785,0.013235413
73.83126502856612,18.518696995452046,0.0,6.2236047,17-15-07,-0.36480665,0.16652012,-1.1970019,265.0,0.065097876,-0.03388266,-0.01975131
73.83126502856612,18.518696995452046,0.0,6.2236047,17-15-07,0.42879868,-0.339406,-0.25689387,265.0,-0.043025274,-0.04671083,0.027285315
73.83126502856612,18.518696995452046,0.0,6.2236047,17-15-07,0.5137588,0.32425976,-0.36895895,265.0,-0.07662286,-0.05343035,-0.016086118
73.83126502856612,18.518696995452046,0.0,6.2236047,17-15-07,0.74408257,0.44553566,0.066419184,266.0,-0.06929248,-0.09374745,0.05110906
73.83126502856612,18.518696995452046,0.0,6.2236047,17-15-07,0.24795261,0.5314245,-1.1241379,265.0,0.114577964,-0.066869386,-0.016086118
73.83126502856612,18.518696995452046,0.0,6.2236047,17-15-08,0.08670053,0.29996395,0.52374744,266.0,0.02966769,-0.077254094,0.002850704
73.83126502856612,18.518696995452046,0.0,6.2236047,17-15-08,0.05935499,0.9283714,-1.4017262,266.0,-0.0179798,-0.07603236,0.014457144
73.83126502856612,18.518696995452046,0.0,6.2236047,17-15-08,0.601338,0.65025234,-0.8960042,266.0,0.13351478,-0.080308415,0.011402819
73.83126502856612,18.518696995452046,0.0,6.2236047,17-15-08,0.0109552145,0.69736576,-0.0927887,265.0,0.08342383,-0.05037602,-0.039298996
73.83126502856612,18.518696995452046,0.0,6.2236047,17-15-08,0.16570094,0.3484316,-0.62518716,265.0,0.01928298,-0.05709554,-0.034412075
73.83126502856612,18.518696995452046,0.0,6.2236047,17-15-08,0.16751695,0.56324196,0.40453124,265.0,0.12129748,-0.10107783,-0.009366602
73.83126502856612,18.518696995452046,0.0,6.2236047,17-15-08,-0.9212137,0.2918558,-0.27595276,265.0,0.13717997,-0.03999131,-0.10466158
73.83126502856612,18.518696995452046,0.0,6.2236047,17-15-08,0.16986904,-0.13806915,0.037291884,265.0,0.057156626,-0.056484673,0.0010181069
73.83126502856612,18.518696995452046,0.0,6.2236047,17-15-08,0.13191241,-0.2491169,0.13783848,266.0,-8.755727E-4,-0.044878233,-0.03380121
73.83126502856612,18.518696995452046,0.0,6.2236047,17-15-08,-0.14253986,-0.059679985,0.6219477,268.0,0.015617789,-0.06381506,0.013235413
73.83126502856612,18.518696995452046,0.0,6.2236047,17-15-09,-0.25630683,-0.30889225,-1.2227801,268.0,0.013785193,-0.044878233,0.013846278
73.83126502856612,18.518696995452046,0.0,6.2236047,17-15-09,1.6062768,-0.03693199,2.2335489,266.0,-0.22750658,-0.09863438,0.08043059
73.83126502856612,18.518696995452046,0.0,6.2236047,17-15-09,-2.049965,-0.5750761,-1.9077339,265.0,-0.26232588,-0.14689273,0.121358566
73.83126502856612,18.518696995452046,0.0,6.2236047,17-15-09,-0.19369423,0.66847515,-1.8006642,265.0,0.10480412,0.068131834,-0.16513723
73.83125027641654,18.518688236363232,1.16,7.8839946,17-15-09,0.3743561,1.6133137,-2.5071158,266.0,-0.2042937,-0.22019655,0.2209296
73.83125027641654,18.518688236363232,1.16,7.8839946,17-15-09,-2.1224718,-0.18945217,-6.0990243,267.0,-0.46757662,-0.027774006,-0.051516302
73.83125027641654,18.518688236363232,1.16,7.8839946,17-15-09,-1.4193065,3.5790758,-5.1423798,268.0,-0.5243871,9.3666E-4,0.087150104
73.83125027641654,18.518688236363232,1.16,7.8839946,17-15-09,-2.291411,2.539795,-3.370381,270.0,0.6551937,0.120055385,-0.09427687
73.83125027641654,18.518688236363232,1.16,7.8839946,17-15-09,0.05437374,2.0105581,-0.14475334,270.0,0.5507357,0.0669101,-0.1413135
73.83125027641654,18.518688236363232,1.16,7.8839946,17-15-09,-1.9965062,0.82431984,-5.3761787,270.0,0.38396955,-0.059538998,-0.20606521
73.83125027641654,18.518688236363232,1.16,7.8839946,17-15-10,0.11707476,-1.5123501,8.410082,271.0,0.95451766,0.051638477,-0.1498656
73.83125027641654,18.518688236363232,1.16,7.8839946,17-15-10,0.5163642,-4.791968,6.8298974,273.0,0.3491502,0.10111856,-0.22072598
73.83125027641654,18.518688236363232,1.16,7.8839946,17-15-10,-0.8706962,-4.544372,8.089055,275.0,-0.32646674,0.07118616,0.03522656
73.83125027641654,18.518688236363232,1.16,7.8839946,17-15-10,-1.781294,-2.2723303,6.0554495,277.0,-0.6318994,0.031479925,0.06576982
73.83124474436045,18.51867247838527,1.53,8.903,17-15-10,-2.0485656,-0.07038593,2.139461,278.0,-0.45658106,-0.04671083,0.16778433
73.83124474436045,18.51867247838527,1.53,8.903,17-15-10,-1.2102484,0.047377586,1.4541788,277.0,-0.40038145,0.006434447,0.086539246
73.83124474436045,18.51867247838527,1.53,8.903,17-15-10,-1.3458135,1.4091282,-0.914291,276.0,-0.20001765,0.06446664,-0.043575056
73.83124474436045,18.51867247838527,1.53,8.903,17-15-10,-1.3468707,1.7174492,-1.3523942,276.0,-0.028975375,0.09317731,-0.12237667
73.83124474436045,18.51867247838527,1.53,8.903,17-15-10,-0.6794827,1.5364723,-0.9366736,276.0,0.010730867,0.066299245,-0.093666
73.83124474436045,18.51867247838527,1.53,8.903,17-15-10,-0.6640378,1.244627,-0.9750042,278.0,0.11518883,0.0669101,-0.08022697
73.83124474436045,18.51867247838527,1.53,8.903,17-15-11,0.38948637,0.6208401,0.24225864,279.0,0.14145604,0.03697771,-0.062511876
73.83124474436045,18.51867247838527,1.53,8.903,17-15-11,0.793174,-0.4619465,0.46428397,279.0,0.053491432,0.014375695,-0.030746885
73.83124474436045,18.51867247838527,1.53,8.903,17-15-11,0.9293397,-0.23779011,1.2727795,279.0,0.04860451,0.0076561775,-0.025859963
73.83124474436045,18.51867247838527,1.53,8.903,17-15-11,0.28369614,-0.2868185,0.47709554,279.0,0.012563462,9.3666E-4,-8.144863E-4
73.83123954758048,18.518652906641364,1.13,10.332083,17-15-11,0.2847131,-0.3095932,1.1216643,279.0,-0.038749218,-0.010058914,0.0034615695
73.83123954758048,18.518652906641364,1.13,10.332083,17-15-11,0.45962372,-1.1938496,1.9354146,279.0,-0.16275486,-0.016167566,0.019344065
73.83123954758048,18.518652906641364,1.13,10.332083,17-15-11,0.18080513,0.1531496,-2.0726638,279.0,-0.3374623,-0.022276219,0.07004588
73.83123954758048,18.518652906641364,1.13,10.332083,17-15-11,-0.017935902,1.8272114,-5.102045,278.0,-0.5879171,-0.026552275,0.08470664
73.83123954758048,18.518652906641364,1.13,10.332083,17-15-11,0.3381281,-0.92197704,0.7964578,278.0,-0.36006433,-0.07481063,0.07248934
73.83123954758048,18.518652906641364,1.13,10.332083,17-15-11,-0.29183438,2.8181791,-6.4391537,278.0,-0.08700757,0.041253768,-0.03624467
73.83123954758048,18.518652906641364,1.13,10.332083,17-15-12,-0.83071554,3.0431967,-4.8519735,278.0,0.039441533,0.05835799,-0.04662938
73.83123954758048,18.518652906641364,1.13,10.332083,17-15-12,-0.4596022,2.0568333,-1.7073002,278.0,0.322883,0.085236065,-0.08816822
73.83123954758048,18.518652906641364,1.13,10.332083,17-15-12,-0.61355937,2.1732397,-3.2597458,278.0,0.3210504,0.047362417,-0.09488773
73.83123954758048,18.518652906641364,1.13,10.332083,17-15-12,0.7830882,0.90466213,-0.829533,278.0,0.22880976,0.085236065,-0.115046285
73.83123476989567,18.5186424292624,0.39,11.379489,17-15-12,0.94900477,-0.7036991,0.2851976,278.0,0.18666007,-0.0057828575,-0.057624955
73.83123476989567,18.5186424292624,0.39,11.379489,17-15-12,0.7957696,-0.8857908,0.80262864,278.0,0.003400484,-0.039380446,0.0052941665
73.83123476989567,18.5186424292624,0.39,11.379489,17-15-12,0.68837976,-1.0520163,1.4294488,279.0,-0.025310185,-0.06625852,0.0052941665
73.83123476989567,18.5186424292624,0.39,11.379489,17-15-12,-0.3158478,0.26328087,-0.6034405,279.0,-0.16947438,-0.02349795,0.07187848
73.83123476989567,18.5186424292624,0.39,11.379489,17-15-12,0.1356066,-0.369462,1.2540327,279.0,-0.16336572,-0.05404121,0.033393964
73.83123476989567,18.5186424292624,0.39,11.379489,17-15-12,-0.59159476,1.0399389,-1.4174639,279.0,-0.13465506,-0.029606603,0.014457144
73.83123476989567,18.5186424292624,0.39,11.379489,17-15-13,-0.43331945,0.069374084,-0.29899463,279.0,-0.074179396,-0.014945837,-0.013031792
73.83123476989567,18.5186424292624,0.39,11.379489,17-15-13,0.23276216,1.9235992,-2.5428655,278.0,0.13717997,-0.02349795,-0.019140445
73.83123476989567,18.5186424292624,0.39,11.379489,17-15-13,-1.0409409,0.30192757,-0.71491826,278.0,0.117632285,0.05102761,-0.059457548
73.83123476989567,18.5186424292624,0.39,11.379489,17-15-13,0.9144094,0.54854107,-1.1923814,277.0,0.094419405,-0.062593326,0.012624547
73.8312319200486,18.518634005449712,0.28,12.167683,17-15-13,0.39158276,-0.22759819,-1.4570285,277.0,-0.02958624,-0.020443624,-0.02097304
73.8312319200486,18.518634005449712,0.28,12.167683,17-15-13,0.5102954,-0.10966873,-0.1501472,277.0,-0.1322116,-0.007004588,0.02239839
73.8312319200486,18.518634005449712,0.28,12.167683,17-15-13,-0.012170792,-0.46080208,0.8175528,278.0,-0.09189449,0.021095213,-0.020362174
73.8312319200486,18.518634005449712,0.28,12.167683,17-15-13,-0.97329867,-0.06516552,-0.08741164,280.0,-0.09250536,0.015597426,-0.01730785
73.8312319200486,18.518634005449712,0.28,12.167683,17-15-13,-0.26538858,1.4089718,0.23761201,283.0,0.009509136,0.036366843,-0.02097304
73.8312319200486,18.518634005449712,0.28,12.167683,17-15-13,-0.77617764,-0.4218998,0.22340202,284.0,-0.0069842255,-0.016167566,0.0327831
73.8312319200486,18.518634005449712,0.28,12.167683,17-15-14,-0.42648914,1.049284,-1.6589177,284.0,0.058378354,0.022316944,-0.04907284
73.8312319200486,18.518634005449712,0.28,12.167683,17-15-14,-0.0079462845,1.1186256,-2.0849187,283.0,0.022948172,-0.047321696,0.012624547
73.8312319200486,18.518634005449712,0.28,12.167683,17-15-14,0.96844184,1.2772074,-1.6713204,280.0,0.10969104,0.021706078,-0.11687888
73.8312319200486,18.518634005449712,0.28,12.167683,17-15-14,-0.6503712,-0.96358204,-0.5470114,280.0,0.012563462,0.13593787,-0.0954986
73.83122680708766,18.51862503681332,0.63,13.2050705,17-15-14,0.40339938,1.094182,2.2118988,283.0,0.05165884,0.14815518,-0.12237667
73.83122680708766,18.51862503681332,0.63,13.2050705,17-15-14,-0.43815905,0.5123949,0.08247471,285.0,0.068152204,0.2165721,-0.08633562
73.83122680708766,18.51862503681332,0.63,13.2050705,17-15-14,0.08423889,-0.24206829,0.61329556,285.0,-0.039360084,0.095620774,-0.0533489
73.83122680708766,18.51862503681332,0.63,13.2050705,17-15-14,-0.62591845,0.6367264,-0.9361751,286.0,-0.09250536,0.115779325,0.027285315
73.83122680708766,18.51862503681332,0.63,13.2050705,17-15-14,-0.3345596,0.602952,-0.12745214,286.0,-0.043025274,0.09378818,0.109752126
73.83122680708766,18.51862503681332,0.63,13.2050705,17-15-14,-0.261406,0.32347298,0.33065605,283.0,-0.20551543,0.13044009,-0.013642658
73.83122680708766,18.51862503681332,0.63,13.2050705,17-15-15,-0.85551476,1.8332615,-2.469263,283.0,0.14573209,0.0687427,-0.00447968
73.83122680708766,18.51862503681332,0.63,13.2050705,17-15-15,-0.28958303,1.1977606,0.9826059,283.0,-0.053409982,0.10050769,-0.034412075
73.83122680708766,18.51862503681332,0.63,13.2050705,17-15-15,0.81935567,-0.22285652,0.58794373,283.0,0.065097876,0.18175277,-0.074118316
73.83122680708766,18.51862503681332,0.63,13.2050705,17-15-15,-0.19648498,0.27446175,0.7178005,280.0,-0.002097303,0.17930931,-0.020362174
73.83122077211738,18.518608608283103,0.93,14.880568,17-15-15,-0.17689517,-0.09498501,-0.9571762,278.0,-8.755727E-4,0.16648114,-0.044185918
73.83122077211738,18.518608608283103,0.93,14.880568,17-15-15,0.7800729,-0.47483444,-0.15245849,275.0,-0.005762494,0.09378818,-0.024027366
73.83122077211738,18.518608608283103,0.93,14.880568,17-15-15,-0.3441397,-0.2574234,-0.56557643,273.0,0.061432682,0.01376483,0.018122334
73.83122077211738,18.518608608283103,0.93,14.880568,17-15-15,-0.46598193,0.74330044,0.982545,272.0,-0.06440555,0.07607309,-0.010588331
73.83122077211738,18.518608608283103,0.93,14.880568,17-15-15,-0.35823995,0.7688122,-0.6330226,271.0,-0.0069842255,0.04980588,-0.042353325
73.83122077211738,18.518608608283103,0.93,14.880568,17-15-15,-0.7747475,0.042336464,0.26946518,272.0,0.072428256,0.003380121,0.086539246
73.83122077211738,18.518608608283103,0.93,14.880568,17-15-16,-0.14982037,-1.1280441,1.1975257,272.0,0.080980375,0.03331252,0.020565797
73.83122077211738,18.518608608283103,0.93,14.880568,17-15-16,1.5543634,-0.3979025,0.20462826,272.0,0.035165478,-0.016778432,0.053552523
73.83122077211738,18.518608608283103,0.93,14.880568,17-15-16,2.8119705,-1.5007181,-1.2411206,269.0,-0.21712187,-0.15055794,0.20138192
73.83122077211738,18.518608608283103,0.93,14.880568,17-15-16,1.6968918,-0.3370819,-0.13582945,268.0,-0.2867605,-0.07786496,0.14823663
73.83122035302222,18.518584175035357,1.9799999,16.869617,17-15-16,-0.39150435,0.72734547,0.6583102,268.0,-0.24949771,-0.03510439,0.08287405
73.83122035302222,18.518584175035357,1.9799999,16.869617,17-15-16,1.3381073,0.2317915,0.9673042,266.0,-0.06379469,9.3666E-4,-0.030136019
73.83122035302222,18.518584175035357,1.9799999,16.869617,17-15-16,1.5958699,0.0039138794,-0.87601244,267.0,-0.13587679,-0.09924524,0.08776098
73.83122035302222,18.518584175035357,1.9799999,16.869617,17-15-16,2.90717,1.09968,2.9882722,269.0,-0.017368935,-0.08091928,0.11463905
73.83122035302222,18.518584175035357,1.9799999,16.869617,17-15-16,0.2839681,0.42364788,-1.7391608,269.0,0.0400524,-0.06625852,0.14029539
73.83122035302222,18.518584175035357,1.9799999,16.869617,17-15-16,-0.666749,0.09620857,-1.1397322,268.0,0.08525643,0.0125431,0.055385113
73.83122035302222,18.518584175035357,1.9799999,16.869617,17-15-17,-0.5785349,0.12611294,-1.89576,261.0,0.10846931,0.12372057,-0.14742213
73.83122035302222,18.518584175035357,1.9799999,16.869617,17-15-17,0.19522977,0.3960247,0.4663304,261.0,0.17138843,0.021706078,-0.15475252
73.83122035302222,18.518584175035357,1.9799999,16.869617,17-15-17,-0.018489689,0.32680798,2.8948681,265.0,0.0021787537,0.014375695,-0.05029457
73.83122035302222,18.518584175035357,1.9799999,16.869617,17-15-17,0.8426039,-0.52107906,1.6283307,267.0,-0.038749218,-0.0039502615,0.016900606
73.83122337050736,18.518555802293122,2.99,19.190882,17-15-17,2.1784487,-2.0245438,2.6829805,268.0,-0.21406753,-0.078475825,0.096923955
73.83122337050736,18.518555802293122,2.99,19.190882,17-15-17,1.596317,-0.78232574,2.2039328,267.0,-0.049133927,-0.09374745,0.054774247
73.83122337050736,18.518555802293122,2.99,19.190882,17-15-17,-0.35097954,-0.044672012,-0.2273562,268.0,-0.02592105,-0.019832758,0.037059158
73.83122337050736,18.518555802293122,2.99,19.190882,17-15-17,-0.52841705,0.66270256,0.16398823,268.0,-0.038749218,0.024149539,0.010791954
73.83122337050736,18.518555802293122,2.99,19.190882,17-15-17,-0.31637794,0.53934383,-0.34949493,267.0,0.07181739,0.04614069,-0.036855537
73.83122337050736,18.518555802293122,2.99,19.190882,17-15-17,0.17630069,0.31418133,-1.2868459,267.0,0.17444275,-0.007004588,-0.0099774655
73.83122337050736,18.518555802293122,2.99,19.190882,17-15-18,-2.0166292,1.0967903,0.5243401,268.0,0.08953249,-0.02471968,0.015678875
73.83122337050736,18.518555802293122,2.99,19.190882,17-15-18,-0.26043528,0.58801174,-0.24916649,268.0,0.1121345,0.02903646,0.060272038
73.83122337050736,18.518555802293122,2.99,19.190882,17-15-18,0.09810259,0.05910778,-0.43620527,268.0,0.106025845,0.018651752,0.035837427
73.83122337050736,18.518555802293122,2.99,19.190882,17-15-18,2.0704188,-0.5904989,1.0437257,266.0,0.10358239,0.031479925,-0.01730785
73.8312300760299,18.518512132577598,4.35,23.058794,17-15-18,0.58071506,-0.8126488,1.0068016,267.0,0.04860451,-0.032050062,0.1048652
73.8312300760299,18.518512132577598,4.35,23.058794,17-15-18,0.7885174,-0.85786915,0.7460569,268.0,-0.15970053,-0.027774006,0.13540846
73.8312300760299,18.518512132577598,4.35,23.058794,17-15-18,2.29599,-0.9314461,2.6947682,263.0,-0.14748323,-0.056484673,0.08470664
73.8312300760299,18.518512132577598,4.35,23.058794,17-15-18,-0.53105193,0.62607765,0.8465823,259.0,0.0046222145,-0.025330545,-0.036855537
73.8312300760299,18.518512132577598,4.35,23.058794,17-15-18,-1.4230112,0.2828331,0.99064016,261.0,-0.042414412,-2.850704E-4,0.023009256
73.8312300760299,18.518512132577598,4.35,23.058794,17-15-18,-0.06258285,-0.06832123,1.5456214,261.0,-0.047301333,-0.02105449,0.03950262
73.8312300760299,18.518512132577598,4.35,23.058794,17-15-19,-0.8186498,1.0279121,1.700428,257.0,0.016228653,0.045529824,-0.06800966
73.8312300760299,18.518512132577598,4.35,23.058794,17-15-19,-2.4393446,0.9395304,0.4188076,257.0,0.08220211,0.003380121,-0.10343985
73.8312300760299,18.518512132577598,4.35,23.058794,17-15-19,-2.8472185,0.85271263,-0.3347358,259.0,0.06998479,0.033923384,-0.07350745
73.8312300760299,18.518512132577598,4.35,23.058794,17-15-19,-1.1703937,0.6800957,0.94754565,260.0,0.1665015,0.02292781,-0.06495534
73.83124306797981,18.518444951623678,5.24,29.519508,17-15-19,-2.4808426,-0.22515583,5.4371066,260.0,-0.062572956,0.035755977,-0.13215052
73.83124306797981,18.518444951623678,5.24,29.519508,17-15-19,-3.6770275,1.3274183,6.142731,259.0,0.13962343,0.092566445,-0.16208291
73.83124306797981,18.518444951623678,5.24,29.519508,17-15-19,-5.5230317,0.40227318,7.5902123,259.0,0.36258924,0.22756767,-0.26898432
73.83124306797981,18.518444951623678,5.24,29.519508,17-15-19,-4.4419985,-1.1690207,2.118069,261.0,0.11274537,0.0546928,-0.024027366
73.83124306797981,18.518444951623678,5.24,29.519508,17-15-19,-6.051202,-3.5864415,3.3069723,262.0,-0.32524502,0.26544133,-0.04907284
73.83124306797981,18.518444951623678,5.24,29.519508,17-15-19,-3.210821,-1.8374171,8.913069,263.0,-0.29348,0.13715962,0.09509135
73.83124306797981,18.518444951623678,5.24,29.519508,17-15-20,-1.6666651,1.1472902,0.88032037,263.0,-0.5219436,0.09500991,-0.21583906
73.83124306797981,18.518444951623678,5.24,29.519508,17-15-20,-3.9395912,1.4509802,-1.8552556,265.0,-0.25621724,0.1286075,-0.15597427
73.83124306797981,18.518444951623678,5.24,29.519508,17-15-20,-0.94664574,1.3203602,-2.3382735,267.0,0.13717997,0.102951154,-0.026470827
73.83124306797981,18.518444951623678,5.24,29.519508,17-15-20,-0.86616504,1.69975,0.8997692,267.0,0.20681861,0.16770288,-0.06495534
73.83125212043524,18.51837856695056,6.2999997,36.404568,17-15-20,1.41919,-0.96975136,1.4099334,265.0,0.3686979,0.11822279,-0.08389216
73.83125212043524,18.51837856695056,6.2999997,36.404568,17-15-20,1.384794,-0.59221363,1.4541051,264.0,0.003400484,0.021706078,-0.11810061
73.83125212043524,18.51837856695056,6.2999997,36.404568,17-15-20,-1.8142525,-0.044104576,0.8198095,265.0,0.03211115,0.018651752,-0.077172644
73.83125212043524,18.51837856695056,6.2999997,36.404568,17-15-20,-0.2374936,-2.6725073,7.2009664,266.0,0.05532403,-0.005171993,0.053552523
73.83125212043524,18.51837856695056,6.2999997,36.404568,17-15-20,0.23946077,-1.766159,3.3258572,267.0,-0.39182934,-0.050986886,0.1592322
73.83125212043524,18.51837856695056,6.2999997,36.404568,17-15-20,0.4621628,-0.7827635,0.30466098,265.0,-0.43397903,0.072407894,-0.04174246
73.83125212043524,18.51837856695056,6.2999997,36.404568,17-15-21,-1.270773,1.1871023,-1.167891,265.0,-0.4187074,0.054081935,-0.030136019
73.83125212043524,18.51837856695056,6.2999997,36.404568,17-15-21,-0.25844666,1.4053535,-1.4107125,266.0,-0.36311865,0.003380121,0.06882415
73.83125212043524,18.51837856695056,6.2999997,36.404568,17-15-21,0.1790095,0.79978275,-2.059677,266.0,0.037608936,0.14143565,-0.10221812
73.83125212043524,18.51837856695056,6.2999997,36.404568,17-15-21,0.7507665,0.4886589,-1.7916894,266.0,0.035776343,0.062023185,-0.11260283
73.83126544766128,18.518308997154236,6.49,43.745094,17-15-21,-1.010367,0.3217888,-0.069266975,266.0,-0.100446604,-0.011280645,-0.00447968
73.83126544766128,18.518308997154236,6.49,43.745094,17-15-21,-0.25106016,-0.68499756,1.1533991,268.0,0.06754134,0.027814731,-0.02097304
73.83126544766128,18.518308997154236,6.49,43.745094,17-15-21,0.33928347,-1.4430542,1.5315216,270.0,0.23797274,0.056525398,-0.001425352
73.83126544766128,18.518308997154236,6.49,43.745094,17-15-21,0.341745,-1.7211189,3.1227193,269.0,0.22147939,0.03514511,-0.009366602
73.83126544766128,18.518308997154236,6.49,43.745094,17-15-21,0.828518,-1.1857624,3.1435857,269.0,-0.077233724,-0.00944805,0.019344065
73.83126544766128,18.518308997154236,6.49,43.745094,17-15-21,-0.19680151,-0.5900469,1.5072551,269.0,-0.054631714,-0.00944805,0.053552523
73.83126544766128,18.518308997154236,6.49,43.745094,17-15-22,-2.1340425,0.11685276,-1.8356133,269.0,-0.26293677,-0.010058914,0.10791952
73.83126544766128,18.518308997154236,6.49,43.745094,17-15-22,0.45284247,0.20768261,0.08123392,269.0,-0.24338907,0.05102761,0.056606844
73.83126544766128,18.518308997154236,6.49,43.745094,17-15-22,-0.46927714,0.7036114,-1.9884083,269.0,-0.16764179,0.112725,0.030339643
73.83126544766128,18.518308997154236,6.49,43.745094,17-15-22,0.072066724,0.89598465,-0.9552187,269.0,-0.11022045,0.15548557,-0.06923139
73.83127835579216,18.518235445953906,7.31,51.67304,17-15-22,0.6821643,1.6859188,-2.0596774,269.0,0.06693047,0.13960308,-0.07595091
73.83127835579216,18.518235445953906,7.31,51.67304,17-15-22,0.6163855,-0.8718128,-1.6500024,270.0,0.01928298,0.16220507,-0.05457063
73.83127835579216,18.518235445953906,7.31,51.67304,17-15-22,-0.51474285,-0.069909096,-3.874567,270.0,-0.1022792,0.08706866,0.07920886
73.83127835579216,18.518235445953906,7.31,51.67304,17-15-22,0.84537446,-0.005209923,7.1290255,268.0,0.10113893,0.0687427,0.023620121
73.83127835579216,18.518235445953906,7.31,51.67304,17-15-22,-1.296769,-0.5661745,3.5370262,267.0,0.17444275,0.06507751,0.036448292
73.83127835579216,18.518235445953906,7.31,51.67304,17-15-22,1.1176174,-1.1610565,8.84906,268.0,0.3051679,-0.014945837,0.13785192
73.83127835579216,18.518235445953906,7.31,51.67304,17-15-23,1.1667008,-1.690486,4.3943567,268.0,0.038830668,-0.24218771,0.2563598
73.83127835579216,18.518235445953906,7.31,51.67304,17-15-23,-5.863544,-0.91916084,2.595376,267.0,0.47621018,-0.20064887,0.27224228
73.83127835579216,18.518235445953906,7.31,51.67304,17-15-23,-3.3391902,-2.1142511,1.023558,266.0,0.66557837,0.03697771,-0.08511389
73.83127835579216,18.518235445953906,7.31,51.67304,17-15-23,-4.3093,-0.13062763,4.52025,265.0,0.055934895,0.13166183,-0.32335132
73.83129838854074,18.51815690752119,7.94,60.20236,17-15-23,2.6797247,-0.38799095,1.71176,265.0,0.10663671,0.24528277,-0.09794206
73.83129838854074,18.51815690752119,7.94,60.20236,17-15-23,0.56586516,-1.0104485,-1.1531086,264.0,0.01928298,0.0864578,-0.046018515
73.83129838854074,18.51815690752119,7.94,60.20236,17-15-23,0.42353424,-0.0103235245,-0.11540216,263.0,-0.17008524,0.045529824,-0.013031792
73.83129838854074,18.51815690752119,7.94,60.20236,17-15-23,-0.95377064,0.042482376,-0.13648117,262.0,-0.07967719,0.06385578,-0.0075340047
73.83129838854074,18.51815690752119,7.94,60.20236,17-15-23,0.026553452,0.53251934,0.5729905,262.0,0.03333288,0.11028154,-0.022805637
73.83129838854074,18.51815690752119,7.94,60.20236,17-15-23,0.40681365,0.30699158,0.99704766,260.0,0.084034696,0.10050769,-0.026470827
73.83129838854074,18.51815690752119,7.94,60.20236,17-15-24,0.3073259,1.5990772,0.033353403,259.0,0.16283631,0.003380121,-0.037466403
73.83129838854074,18.51815690752119,7.94,60.20236,17-15-24,-1.102217,0.77385616,0.44719374,259.0,0.17932968,-0.008837184,0.06638069
73.83129838854074,18.51815690752119,7.94,60.20236,17-15-24,-0.37795052,1.0132856,-1.3141565,257.0,0.11824315,0.04980588,-0.05457063
73.83129838854074,18.51815690752119,7.94,60.20236,17-15-24,-0.0993015,0.42900372,-0.39692894,253.0,0.1738319,0.22817853,-0.275093
73.83131749927998,18.518077195622027,7.87,68.968506,17-15-24,-0.74096465,-0.12897491,-2.315836,254.0,0.10480412,0.0546928,-0.039298996
73.83131749927998,18.518077195622027,7.87,68.968506,17-15-24,2.1633263,-1.5942287,0.018086862,254.0,-0.22384138,-0.008226318,0.048665598
73.83131749927998,18.518077195622027,7.87,68.968506,17-15-24,3.8684402,-1.4788189,0.84249187,253.0,-0.3166929,-0.1792686,0.19405153
73.83131749927998,18.518077195622027,7.87,68.968506,17-15-24,0.7385585,-0.6575451,3.8176417,253.0,-0.30325386,-0.16094264,0.18672115
73.83131749927998,18.518077195622027,7.87,68.968506,17-15-24,-2.4739084,1.534049,0.2920365,252.0,-0.32463416,-0.058317266,0.17267123
73.83131749927998,18.518077195622027,7.87,68.968506,17-15-24,-2.3137903,0.8158207,1.1671494,252.0,-0.3411275,-0.016778432,0.08287405
73.83131749927998,18.518077195622027,7.87,68.968506,17-15-25,1.4605238,1.6154041,0.12566169,251.0,0.13962343,0.07546222,-0.09855293
73.83131749927998,18.518077195622027,7.87,68.968506,17-15-25,2.9044793,1.6491604,2.4764276,250.0,0.045550186,-0.09496918,0.0187332
73.83131749927998,18.518077195622027,7.87,68.968506,17-15-25,0.8943827,-0.64507294,1.4708792,245.0,0.3039462,-0.08397361,-0.09488773
73.83131749927998,18.518077195622027,7.87,68.968506,17-15-25,-2.1584363,-0.27413464,2.6534119,245.0,0.16039285,0.104172885,-0.10588331
73.83134088478982,18.51799287367612,8.74,78.31912,17-15-25,1.4957265,0.8567009,1.5786932,245.0,0.28745282,0.0046018516,-0.21461731
73.83134088478982,18.51799287367612,8.74,78.31912,17-15-25,-0.28137714,0.86402225,-2.521205,246.0,-0.17313957,-0.035715256,-0.051516302
73.83134088478982,18.51799287367612,8.74,78.31912,17-15-25,0.39958847,-1.0840607,1.8575591,247.0,-0.035084028,-0.13284284,0.059661172
73.83134088478982,18.51799287367612,8.74,78.31912,17-15-25,0.149297,-0.73887634,3.0549617,247.0,-0.101668335,-0.13895148,0.06393723
73.83134088478982,18.51799287367612,8.74,78.31912,17-15-25,-0.43313277,-0.5543041,1.3042852,246.0,-0.22750658,-0.065647654,-8.144863E-4
73.83134088478982,18.51799287367612,8.74,78.31912,17-15-25,-0.15448153,1.245431,-2.076458,246.0,-0.1566462,-0.14078408,0.021176662
73.83134088478982,18.51799287367612,8.74,78.31912,17-15-26,0.6807499,0.49960995,-0.39818507,246.0,-0.104722664,-0.15055794,0.010791954
73.83134088478982,18.51799287367612,8.74,78.31912,17-15-26,1.1389788,0.089245796,1.1344073,245.0,-0.054631714,-0.22264001,0.0327831
73.83134088478982,18.51799287367612,8.74,78.31912,17-15-26,0.026399016,0.59254265,-1.9919021,247.0,0.012563462,-0.22202915,0.037670024
73.83134088478982,18.51799287367612,8.74,78.31912,17-15-26,-0.008748651,0.30977726,-1.5972025,247.0,0.06448701,-0.1792686,-0.031968616
73.83136611431837,18.5179032292217,8.929999,88.33363,17-15-26,0.2558701,1.2490921,-1.5273474,246.0,-0.013092878,-0.14689273,-0.04540765
73.83136611431837,18.5179032292217,8.929999,88.33363,17-15-26,0.12020147,0.38757133,-1.3526958,247.0,0.057156626,-0.16399696,-0.016696984
73.83136611431837,18.5179032292217,8.929999,88.33363,17-15-26,0.43891943,-0.36624622,-0.6244547,248.0,0.06570874,-0.13406456,-0.027081693
73.83136611431837,18.5179032292217,8.929999,88.33363,17-15-26,1.396455,-0.14458847,1.4419922,248.0,0.015617789,-0.100466974,-0.07350745
73.83136611431837,18.5179032292217,8.929999,88.33363,17-15-26,0.37975085,0.0087919235,3.108515,249.0,0.07059566,-0.1420058,-0.028303422
73.83136611431837,18.5179032292217,8.929999,88.33363,17-15-26,-0.20756721,0.5769701,0.9867799,251.0,-0.07234681,-0.18537724,0.0645481
73.83136611431837,18.5179032292217,8.929999,88.33363,17-15-27,-0.4282441,0.21074963,-0.7671119,252.0,-0.11449651,-0.20431405,0.065158956
73.83136611431837,18.5179032292217,8.929999,88.33363,17-15-27,-2.3282027,1.8679771,-3.201431,252.0,-0.018590666,-0.2507398,0.19588411
73.83136611431837,18.5179032292217,8.929999,88.33363,17-15-27,-1.405688,3.539915,-1.6869555,252.0,0.14634295,-0.1438384,-0.003257949
73.83136611431837,18.5179032292217,8.929999,88.33363,17-15-27,-0.38265932,1.8819141,-1.0245248,253.0,0.27218118,-0.15666658,-0.0038688146
73.831388913095,18.517818991094828,7.3799996,97.78643,17-15-27,-1.5039309,0.5904913,-4.8446836,254.0,0.41023675,-0.11268427,-0.033190347
73.831388913095,18.517818991094828,7.3799996,97.78643,17-15-27,0.8631331,1.4600744,-2.6145482,254.0,0.32776994,-0.088860534,-0.15780686
73.831388913095,18.517818991094828,7.3799996,97.78643,17-15-27,1.4996576,-0.8252678,1.2101415,254.0,0.40657154,-0.10596476,-0.13520485
73.831388913095,18.517818991094828,7.3799996,97.78643,17-15-27,0.09783137,-0.8474331,-0.37974516,255.0,0.43161702,-0.16949475,-0.03868813
73.831388913095,18.517818991094828,7.3799996,97.78643,17-15-27,-0.3476771,-0.7030182,1.7686405,256.0,0.087089024,-0.24279857,-0.00447968
73.831388913095,18.517818991094828,7.3799996,97.78643,17-15-27,1.2117679,-1.1073351,2.1035254,257.0,0.236751,-0.19515109,-0.0063122734
73.831388913095,18.517818991094828,7.3799996,97.78643,17-15-28,-0.52410805,-1.3791618,1.8101392,258.0,0.12862785,-0.22752693,0.030339643
73.831388913095,18.517818991094828,7.3799996,97.78643,17-15-28,0.024122,-0.33256912,1.7046721,259.0,0.071206525,-0.2654006,0.04255695
73.831388913095,18.517818991094828,7.3799996,97.78643,17-15-28,0.26789021,0.27801323,0.44229898,260.0,0.10908017,-0.2580702,0.079819724
73.831388913095,18.517818991094828,7.3799996,97.78643,17-15-28,-0.5004326,-1.2320347,0.1049667,261.0,0.12435181,-0.16582954,-0.06800966
73.83139293640852,18.51773709990084,7.99,106.85834,17-15-28,0.51077175,1.3139353,-0.21485794,265.0,0.20987295,-0.15239051,-0.07228572
73.83139293640852,18.51773709990084,7.99,106.85834,17-15-28,-0.4398893,0.6195564,0.30312955,269.0,0.09747373,-0.08275188,-0.09427687
73.83139293640852,18.51773709990084,7.99,106.85834,17-15-28,1.823768,-0.9062042,-1.0429244,271.0,0.1524516,-0.07114544,-0.07839437
73.83139293640852,18.51773709990084,7.99,106.85834,17-15-28,1.9115292,-1.3004074,0.5596224,274.0,0.13351478,-0.06442592,-0.057624955
73.83139293640852,18.51773709990084,7.99,106.85834,17-15-28,0.91316307,-1.0734482,2.8610623,276.0,0.059600085,-0.12184725,0.021176662
73.83139293640852,18.51773709990084,7.99,106.85834,17-15-28,0.18045884,-0.66657734,1.9098476,277.0,0.10358239,0.02903646,-0.11993321
73.83139293640852,18.51773709990084,7.99,106.85834,17-15-29,-4.0239096E-4,-0.9420805,1.2852538,279.0,0.29905927,-0.021665353,-0.08083783
73.83139293640852,18.51773709990084,7.99,106.85834,17-15-29,-0.16439605,-1.8714929,1.3788135,280.0,0.14634295,-0.011280645,-0.022194771
73.83139293640852,18.51773709990084,7.99,106.85834,17-15-29,-0.24570027,-0.46898365,-0.8008692,282.0,-0.031418838,-0.047321696,0.09631308
73.83139293640852,18.51773709990084,7.99,106.85834,17-15-29,-0.10448855,-1.443943,-1.9588937,283.0,-0.0014864383,0.032701652,0.009570222
73.831383632496,18.517657010816038,7.7999997,115.646255,17-15-29,-0.65905225,-0.66574,-1.264492,282.0,0.007065675,-0.010058914,-0.06312274
73.831383632496,18.517657010816038,7.7999997,115.646255,17-15-29,0.89876926,-0.20486736,3.6037416,284.0,-0.16825265,-2.850704E-4,0.0926479
73.831383632496,18.517657010816038,7.7999997,115.646255,17-15-29,-0.318673,-2.0427012,-1.0190959,282.0,-0.12182689,-0.074199766,-0.020362174
73.831383632496,18.517657010816038,7.7999997,115.646255,17-15-29,-2.963995,2.05616,-0.54473066,279.0,0.21842505,0.046751555,-0.17185676
73.831383632496,18.517657010816038,7.7999997,115.646255,17-15-29,-0.37653542,0.14277363,-0.2337836,281.0,0.17810795,0.03331252,-0.052738033
73.831383632496,18.517657010816038,7.7999997,115.646255,17-15-29,0.88444567,-1.3375101,-0.5500597,281.0,-0.0051516294,-0.010058914,0.1048652
73.831383632496,18.517657010816038,7.7999997,115.646255,17-15-30,0.6109747,0.6114063,3.4314475,277.0,-0.411377,-0.088860534,0.10425433
73.831383632496,18.517657010816038,7.7999997,115.646255,17-15-30,-0.68895805,1.002224,-2.1354818,275.0,-0.046079602,-0.04243477,-0.034412075
73.831383632496,18.517657010816038,7.7999997,115.646255,17-15-30,0.12871158,2.0205688,0.31967622,274.0,-0.02042326,-0.062593326,-0.06617707
73.831383632496,18.517657010816038,7.7999997,115.646255,17-15-30,-0.198012,1.3441658,1.9383528,275.0,0.003400484,0.06263405,-0.09794206
73.83135857060552,18.517575287260115,8.309999,124.57354,17-15-30,-1.7337582,1.673603,-0.7920686,277.0,0.27523553,0.03331252,-0.16269377
73.83135857060552,18.517575287260115,8.309999,124.57354,17-15-30,-0.79840595,0.49444962,-0.37386262,280.0,0.10236066,0.013153965,-0.051516302
73.83135857060552,18.517575287260115,8.309999,124.57354,17-15-30,-0.07095802,0.65292645,-0.53059506,282.0,0.058378354,-0.062593326,0.013235413
73.83135857060552,18.517575287260115,8.309999,124.57354,17-15-30,1.8448155,-0.087779045,0.37344575,284.0,-0.035084028,-0.06320419,0.053552523
73.83135857060552,18.517575287260115,8.309999,124.57354,17-15-30,0.4015708,-0.40556717,0.41563365,284.0,-0.1761939,-0.12612331,0.10730866
73.83135857060552,18.517575287260115,8.309999,124.57354,17-15-30,-0.7613313,1.191391,-0.9123644,286.0,0.080980375,-0.016167566,0.002850704
73.83135857060552,18.517575287260115,8.309999,124.57354,17-15-31,-0.16683775,0.58201313,1.405321,285.0,-0.09189449,0.047973283,-0.048461977
73.83135857060552,18.517575287260115,8.309999,124.57354,17-15-31,0.9541551,-0.32225418,0.69468737,285.0,0.1121345,0.010099638,-0.05823582
73.83135857060552,18.517575287260115,8.309999,124.57354,17-15-31,-0.24217767,1.0133467,1.5819659,283.0,0.14145604,0.05102761,-0.11015937
73.83135857060552,18.517575287260115,8.309999,124.57354,17-15-31,-0.7545524,0.96886253,0.4089134,283.0,0.1701667,0.015597426,-0.09427687
73.83135857060552,18.517575287260115,8.309999,124.57354,17-15-31,1.2000351,0.22448826,1.2969238,285.0,0.10174979,0.038810305,-0.03380121
73.8313286472112,18.51748903747648,8.82,134.06726,17-15-31,0.5984493,-0.255476,1.5498903,285.0,0.10358239,0.03697771,-0.031968616
73.8313286472112,18.51748903747648,8.82,134.06726,17-15-31,-0.44901407,0.15488815,-0.9530168,286.0,0.027835093,0.0039909864,-0.03502294
73.8313286472112,18.51748903747648,8.82,134.06726,17-15-31,-0.42525607,0.43269444,1.8872902,287.0,-0.25194117,0.02537127,-0.009366602
73.8313286472112,18.51748903747648,8.82,134.06726,17-15-31,0.22340235,-0.5888252,0.18296003,287.0,-0.044247005,-0.028384872,0.029728778
73.8313286472112,18.51748903747648,8.82,134.06726,17-15-31,0.11087912,0.38633537,-0.1519418,285.0,0.07853691,0.054081935,-0.08938995
73.8313286472112,18.51748903747648,8.82,134.06726,17-15-32,0.69853187,-0.44354153,0.97903854,285.0,0.03699807,0.044918958,-0.07106399
73.8313286472112,18.51748903747648,8.82,134.06726,17-15-32,1.243258,-0.10135651,0.782828,287.0,0.013785193,-0.013724105,-0.0075340047
73.8313286472112,18.51748903747648,8.82,134.06726,17-15-32,0.4404656,0.5357132,-0.34816343,288.0,-0.13770938,-0.066869386,0.051719926
73.8313286472112,18.51748903747648,8.82,134.06726,17-15-32,0.14366278,1.7843714,3.6493554,287.0,-0.1603114,0.02903646,0.08043059
73.83129813708365,18.517399560660124,9.11,143.99582,17-15-32,-0.71998703,0.7123203,-0.36752865,288.0,0.15978199,-0.016778432,0.016900606
73.83129813708365,18.517399560660124,9.11,143.99582,17-15-32,-1.1969694,0.23180771,-4.1387014,285.0,0.17444275,0.066299245,-0.09794206
73.83129813708365,18.517399560660124,9.11,143.99582,17-15-32,2.4709427,0.77867985,-0.0070183575,285.0,0.05898922,0.11883365,-0.23416501
73.83129813708365,18.517399560660124,9.11,143.99582,17-15-32,2.893221,-1.2764797,1.6902672,286.0,0.2966158,0.066299245,-0.1339831
73.83129813708365,18.517399560660124,9.11,143.99582,17-15-32,1.5585753,-1.8897266,1.4348569,286.0,0.060821816,-0.12978849,0.06576982
73.83129813708365,18.517399560660124,9.11,143.99582,17-15-32,1.1898583,-0.3787346,1.3570184,286.0,-0.13587679,-0.10107783,0.054774247
73.83129813708365,18.517399560660124,9.11,143.99582,17-15-33,0.34307945,-0.9170265,-0.33918345,287.0,-0.16642006,-0.10229956,0.13174328
73.83129813708365,18.517399560660124,9.11,143.99582,17-15-33,0.11547829,1.1673994,-0.88781863,287.0,-0.09250536,0.010099638,-0.011199197
73.83129813708365,18.517399560660124,9.11,143.99582,17-15-33,-0.63886034,1.2094374,0.28395373,288.0,-0.088840164,-0.005171993,-0.006923139
73.83129813708365,18.517399560660124,9.11,143.99582,17-15-33,1.037356,0.7657366,-2.590747,289.0,-0.07601199,-0.029606603,-0.028303422
73.83126896806061,18.517297888174653,10.28,155.33215,17-15-33,2.57042,0.7842436,-1.1829747,290.0,0.12496267,0.016819157,-0.03135775
73.83126896806061,18.517297888174653,10.28,155.33215,17-15-33,0.04993102,0.9909458,-1.3609903,290.0,0.16222546,-0.06198246,-0.040520728
73.83126896806061,18.517297888174653,10.28,155.33215,17-15-33,-2.1361818,0.1806984,-0.7998101,293.0,-0.069903344,-0.18232292,0.20382538
73.83126896806061,18.517297888174653,10.28,155.33215,17-15-33,2.0977938,0.95342827,-0.23366144,292.0,-0.20185024,-0.14506012,0.17328212
73.83126896806061,18.517297888174653,10.28,155.33215,17-15-33,-0.9532891,0.6119642,1.455656,291.0,0.09075422,-0.08641707,0.08898271
73.83126896806061,18.517297888174653,10.28,155.33215,17-15-33,-2.4209669,0.44129372,-0.4626789,291.0,0.098695464,-0.15300137,0.15373442
73.83126896806061,18.517297888174653,10.28,155.33215,17-15-34,-0.97579163,0.38923168,-0.21135844,290.0,0.055934895,0.0687427,0.008959357
73.83126896806061,18.517297888174653,10.28,155.33215,17-15-34,-1.3222276,-0.25194168,-3.070238,288.0,-0.055853445,-0.030217469,0.029117912
73.83126896806061,18.517297888174653,10.28,155.33215,17-15-34,-0.3310045,0.17447281,0.48326692,288.0,0.031500284,0.03942117,-0.03807727
73.83126896806061,18.517297888174653,10.28,155.33215,17-15-34,-1.1034572,0.109451294,-2.5021734,288.0,-0.0863967,0.0669101,-0.022194771
73.83123267441988,18.517205016687512,10.62,165.78343,17-15-34,1.3213836,-0.449852,0.8226532,288.0,-0.041803546,-0.01189151,0.010181088
73.83123267441988,18.517205016687512,10.62,165.78343,17-15-34,0.14490868,0.15660477,2.5780847,288.0,-0.07784459,-0.048543423,0.050498195
73.83123267441988,18.517205016687512,10.62,165.78343,17-15-34,1.5292212,-1.0750532,0.09229016,287.0,0.08464556,-0.068701975,0.057828575
73.83123267441988,18.517205016687512,10.62,165.78343,17-15-34,2.2334783,-0.7695341,3.7838318,287.0,0.10480412,-0.14139494,0.121358566
73.83123267441988,18.517205016687512,10.62,165.78343,17-15-34,-1.9392676,1.2231102,-2.9503756,282.0,-0.27943012,-0.13039938,0.16045395
73.83123267441988,18.517205016687512,10.62,165.78343,17-15-34,0.19668716,0.87541866,1.8635038,282.0,-0.15175928,-0.047932558,0.046833
73.83123267441988,18.517205016687512,10.62,165.78343,17-15-35,-2.538302,1.3652449,-2.5597973,282.0,0.080980375,0.0039909864,-0.019140445
73.83123267441988,18.517205016687512,10.62,165.78343,17-15-35,-2.3767238,2.27598,1.7113719,283.0,-0.07051421,-0.06076073,-0.053959765
73.83123267441988,18.517205016687512,10.62,165.78343,17-15-35,-0.51975393,1.7843256,-1.9149559,282.0,0.45849508,0.06568837,-0.15291993
73.83123267441988,18.517205016687512,10.62,165.78343,17-15-35,1.8496659,-1.3954849,-1.051593,282.0,0.15306248,0.03453425,-0.17674369
73.83119788952172,18.517111390829086,10.24,176.36902,17-15-35,0.81512773,0.04545498,1.1273172,283.0,0.04371759,-0.031439196,-0.07595091
73.83119788952172,18.517111390829086,10.24,176.36902,17-15-35,2.1353319,0.18857193,2.446309,286.0,0.007065675,0.008267043,-0.03624467
73.83119788952172,18.517111390829086,10.24,176.36902,17-15-35,2.4837089,-1.1559877,-0.6723007,286.0,0.18116227,-0.109019086,0.09020444
73.83119788952172,18.517111390829086,10.24,176.36902,17-15-35,-0.013739914,-1.6310806,1.0913503,290.0,-0.077233724,-0.14628187,0.23375776
73.83119788952172,18.517111390829086,10.24,176.36902,17-15-35,-1.5509183,0.06667709,-0.9276328,290.0,-0.071125075,-0.032660928,0.08776098
73.83119788952172,18.517111390829086,10.24,176.36902,17-15-35,-3.384733,1.5674686,-0.95013046,288.0,0.043106724,0.03697771,-0.0099774655
73.83119788952172,18.517111390829086,10.24,176.36902,17-15-36,-0.25080097,0.45935154,1.57733,287.0,0.118854016,0.20374393,-0.09977466
73.83119788952172,18.517111390829086,10.24,176.36902,17-15-36,-0.69952583,-1.3181944,-0.86422896,284.0,0.012563462,0.03514511,-0.029525153
73.83119788952172,18.517111390829086,10.24,176.36902,17-15-36,0.04374796,-2.0203934,-1.4606494,282.0,-0.22567397,-0.13223195,0.081041455
73.83119788952172,18.517111390829086,10.24,176.36902,17-15-36,-0.33730435,0.7081137,1.2939976,282.0,-0.069903344,-0.040602177,0.03522656
73.83116293698549,18.517011436633766,10.74,187.70102,17-15-36,-1.1368126,2.3351278,0.053762555,281.0,-0.0069842255,0.0021583906,-0.1498656
73.83116293698549,18.517011436633766,10.74,187.70102,17-15-36,-1.3759394,2.198657,0.57857966,284.0,-0.021034125,0.08034914,-0.17491108
73.83116293698549,18.517011436633766,10.74,187.70102,17-15-36,-1.0468771,1.1509285,-2.7081857,288.0,0.1261844,0.09012298,-0.14925474
73.83116293698549,18.517011436633766,10.74,187.70102,17-15-36,-1.3299315,0.44573975,4.6552205,293.0,-0.055853445,0.013153965,-0.12970705
73.83116293698549,18.517011436633766,10.74,187.70102,17-15-36,-0.7305049,-0.4331503,0.06715751,293.0,0.018672116,0.036366843,-0.0954986
73.83116293698549,18.517011436633766,10.74,187.70102,17-15-37,-0.5010748,-0.75008774,-0.10104394,295.0,0.022948172,0.08951212,-0.046018515
73.83116293698549,18.517011436633766,10.74,187.70102,17-15-37,-2.0508065,0.2462616,2.6945186,297.0,-0.13954198,0.13899222,-0.081448704
73.83116293698549,18.517011436633766,10.74,187.70102,17-15-37,-0.69377387,-0.21816921,-2.0362725,296.0,0.08769989,0.14571172,-0.11260283
73.83116293698549,18.517011436633766,10.74,187.70102,17-15-37,2.6047273,0.12318802,0.76030517,296.0,-0.069903344,-0.018611027,0.1170825
73.83116293698549,18.517011436633766,10.74,187.70102,17-15-37,4.3077517,-1.4132204,4.6698112,290.0,-0.13954198,-0.12673417,0.1525127
73.83111817762256,18.516903519630432,10.95,200.05763,17-15-37,1.1437646,-0.29428768,4.8355474,287.0,-0.27515405,-0.017389297,0.16289741
73.83111817762256,18.516903519630432,10.95,200.05763,17-15-37,-1.1605961,-2.3345504,1.0330209,287.0,-0.34906876,9.3666E-4,0.20932317
73.83111817762256,18.516903519630432,10.95,200.05763,17-15-37,-2.3723488,0.12183094,3.1231017,287.0,-0.32952106,0.13227269,-0.10710504
73.83111817762256,18.516903519630432,10.95,200.05763,17-15-37,-2.6152484,-0.31584263,0.7546265,288.0,-0.47796133,0.16953546,-0.010588331
73.83111817762256,18.516903519630432,10.95,200.05763,17-15-37,-2.6712198,-0.5112438,-2.5091887,288.0,-0.09189449,0.2605544,-0.0796161
73.83111817762256,18.516903519630432,10.95,200.05763,17-15-38,-1.8829033,1.9282084,0.44381753,289.0,-0.15970053,0.06019059,0.012624547
73.83111817762256,18.516903519630432,10.95,200.05763,17-15-38,-1.5699571,1.4348154,-2.2336674,288.0,-0.12793554,0.09806424,-0.02097304
73.83111817762256,18.516903519630432,10.95,200.05763,17-15-38,-1.7989364,1.5634499,0.9170102,288.0,0.017450385,0.1249423,-0.085724756
73.83111817762256,18.516903519630432,10.95,200.05763,17-15-38,-1.248666,1.5724735,-1.803412,289.0,-0.0051516294,0.05835799,0.004683301
73.83111817762256,18.516903519630432,10.95,200.05763,17-15-38,-0.11166108,0.991107,-0.5473428,288.0,0.2227011,-0.008837184,-0.00447968
73.83107140660286,18.51679732091725,10.87,212.31017,17-15-38,-0.97986287,-1.2363815,1.4010925,288.0,0.068152204,0.04186463,0.069435015
73.83107140660286,18.51679732091725,10.87,212.31017,17-15-38,-0.40918168,-1.0063162,2.3452146,288.0,-0.019201532,0.10050769,0.02239839
73.83107140660286,18.51679732091725,10.87,212.31017,17-15-38,-2.4704874,-1.7195711,5.995955,287.0,-0.28614965,0.17197892,-0.18163061
73.83107140660286,18.51679732091725,10.87,212.31017,17-15-38,-1.0520215,-1.7072029,2.2088137,287.0,-0.18474601,-0.02716314,0.059050307
73.83107140660286,18.51679732091725,10.87,212.31017,17-15-38,-1.0122812,-0.25201416,0.26546004,286.0,-0.3130277,-0.031439196,0.098145686
73.83107140660286,18.51679732091725,10.87,212.31017,17-15-39,0.1703462,-0.53842926,-0.12571722,286.0,-0.21345668,-0.028995737,0.08165232
73.83107140660286,18.51679732091725,10.87,212.31017,17-15-39,-1.6562904,1.1392994,0.47053078,286.0,-0.046079602,-0.049765155,0.09753481
73.83107140660286,18.51679732091725,10.87,212.31017,17-15-39,-0.83875513,1.8779345,2.175892,285.0,-0.29714522,-0.07908668,0.13418674
73.83107140660286,18.51679732091725,10.87,212.31017,17-15-39,-0.42817265,1.6875715,0.5876152,285.0,0.15000814,-0.12306898,0.10669779
73.83107140660286,18.51679732091725,10.87,212.31017,17-15-39,-1.8339683,-0.019019127,0.5896143,286.0,0.1878818,-0.07481063,0.043778673
73.83104056119919,18.516682530753314,11.58,225.3302,17-15-39,-1.1454353,-0.5236149,-0.03772738,286.0,0.11091277,0.010710504,0.005905032
73.83104056119919,18.516682530753314,11.58,225.3302,17-15-39,-1.6232626,0.6155462,-1.7646377,287.0,-0.31424943,0.014375695,-0.057624955
73.83104056119919,18.516682530753314,11.58,225.3302,17-15-39,-1.3941337,-0.37636375,1.2781676,290.0,-0.119383425,0.030258192,0.009570222
73.83104056119919,18.516682530753314,11.58,225.3302,17-15-39,-2.7394595,0.31624603,-0.893101,291.0,0.03638721,0.14326826,-0.1113811
73.83104056119919,18.516682530753314,11.58,225.3302,17-15-39,-3.0895174,1.0243845,1.2533569,292.0,0.007065675,0.16831374,-0.11443542
73.83104056119919,18.516682530753314,11.58,225.3302,17-15-40,-0.66749763,0.6556883,1.3846447,292.0,0.07364999,0.15792903,-0.081448704
73.83104056119919,18.516682530753314,11.58,225.3302,17-15-40,2.2396684,-0.6171627,-0.06567335,291.0,0.038219802,0.18236363,-0.04785111
73.83104056119919,18.516682530753314,11.58,225.3302,17-15-40,0.43207926,-0.6190853,-0.9624264,289.0,-0.04119268,0.08829039,0.021787524
73.83104056119919,18.516682530753314,11.58,225.3302,17-15-40,-2.078677,-1.439126,1.060667,285.0,-0.13343333,0.10967068,-0.027692558
73.83104056119919,18.516682530753314,11.58,225.3302,17-15-40,1.259532,-1.5032206,-0.81282383,284.0,-0.030807972,0.072407894,-0.07656178
73.83101466111839,18.516572266817093,11.29,237.79247,17-15-40,0.29677477,-0.8672428,-4.355625,283.0,-0.16825265,0.07485136,-0.016696984
73.83101466111839,18.516572266817093,11.29,237.79247,17-15-40,2.8511853,-1.1203251,0.9536177,283.0,-0.2305609,0.019262617,0.09570222
73.83101466111839,18.516572266817093,11.29,237.79247,17-15-40,1.1007867,-1.0721369,-0.009092838,283.0,-0.09922487,-0.05404121,0.07065675
73.83101466111839,18.516572266817093,11.29,237.79247,17-15-40,0.12005979,0.8882227,-4.163373,283.0,-0.56103903,-0.19759455,0.02789618
73.83101466111839,18.516572266817093,11.29,237.79247,17-15-40,-1.145889,1.6744099,-0.50038934,283.0,0.060821816,0.040642902,-0.022805637
73.83101466111839,18.516572266817093,11.29,237.79247,17-15-41,0.38305008,0.8791952,-3.888795,283.0,0.09014335,0.084014334,-0.08205956
73.83101466111839,18.516572266817093,11.29,237.79247,17-15-41,-0.13348901,2.3942108,0.033657342,282.0,0.031500284,-0.047932558,-0.011810061
73.83101466111839,18.516572266817093,11.29,237.79247,17-15-41,-0.39551485,0.6482334,-2.4739714,284.0,0.057767488,-0.09558005,-0.0063122734
73.83101466111839,18.516572266817093,11.29,237.79247,17-15-41,0.4702986,0.46312618,-2.23158,284.0,-0.09189449,-0.00944805,-0.03257948
73.83099228143692,18.516472773626447,9.809999,249.02655,17-15-41,0.010083005,-0.1457634,-2.0945647,286.0,-0.033862296,-0.065647654,0.023009256
73.83099228143692,18.516472773626447,9.809999,249.02655,17-15-41,-1.0419123,-0.5178089,0.5877005,287.0,0.052880567,-0.08214101,0.108530395
73.83099228143692,18.516472773626447,9.809999,249.02655,17-15-41,-1.5407944,0.89533234,-0.77929044,286.0,-0.23728041,-0.02105449,0.1592322
73.83099228143692,18.516472773626447,9.809999,249.02655,17-15-41,-0.7391259,-0.31920242,3.3114061,285.0,0.16161458,-0.08275188,0.13540846
73.83099228143692,18.516472773626447,9.809999,249.02655,17-15-41,-0.243465,0.9534445,-1.1552924,283.0,0.12740614,-0.019832758,0.05416338
73.83099228143692,18.516472773626447,9.809999,249.02655,17-15-41,-2.8918808,0.25360966,-0.61137015,283.0,0.13168219,-0.1420058,0.16595173
73.83099228143692,18.516472773626447,9.809999,249.02655,17-15-42,0.2166574,-0.40913963,-0.040429592,280.0,-0.049133927,0.018651752,-0.11810061
73.83099228143692,18.516472773626447,9.809999,249.02655,17-15-42,0.6250006,1.2905283,-0.8430524,280.0,-0.038138352,-0.06198246,0.005905032
73.83099228143692,18.516472773626447,9.809999,249.02655,17-15-42,-1.2883186,1.6751709,1.2993524,281.0,-0.14870496,-0.07664323,0.010181088
73.83099228143692,18.516472773626447,9.809999,249.02655,17-15-42,0.21720022,2.4807158,1.0084261,282.0,0.05165884,-0.041213043,-0.044185918
73.83099228143692,18.516472773626447,9.809999,249.02655,17-15-42,0.060345113,2.2078285,-1.4332769,282.0,0.114577964,-0.19087502,0.12502375
73.83097518235445,18.51637550164014,9.67,259.94028,17-15-42,1.8592033,3.644864,8.670735,282.0,0.36197838,-0.054652076,-0.02097304
73.83097518235445,18.51637550164014,9.67,259.94028,17-15-42,-0.8977488,-0.39009285,-6.486795,283.0,0.73460615,-0.0021176664,-0.10099639
73.83097518235445,18.51637550164014,9.67,259.94028,17-15-42,0.8870848,1.2091265,-3.9399436,283.0,0.70345205,-0.017389297,0.18794286
73.83097518235445,18.51637550164014,9.67,259.94028,17-15-42,1.9416629,0.5520277,5.5627437,283.0,-0.19818504,0.1512095,0.015678875
73.83097518235445,18.51637550164014,9.67,259.94028,17-15-42,0.9134513,-1.3778782,3.9956527,283.0,0.16161458,-0.1016887,-0.06495534
73.83097518235445,18.51637550164014,9.67,259.94028,17-15-43,1.7350409,-2.2207017,2.016758,283.0,-0.27576494,-0.14322755,0.0908153
73.83097518235445,18.51637550164014,9.67,259.94028,17-15-43,1.8645931,-1.3385754,-0.47992992,283.0,-0.08456411,-0.08214101,0.041946083
73.83097518235445,18.51637550164014,9.67,259.94028,17-15-43,0.8040798,0.45296,-0.45734808,283.0,-0.09372709,-0.10291043,0.034615695
73.83097518235445,18.51637550164014,9.67,259.94028,17-15-43,0.04953736,1.2137823,-1.0255711,284.0,-0.035694893,-0.06381506,-0.035633806
73.83095137774944,18.516297675669193,7.77,268.82672,17-15-43,1.1927521,0.5157919,-1.3529197,286.0,0.2825659,0.07424049,0.06576982
73.83095137774944,18.516297675669193,7.77,268.82672,17-15-43,-0.16845834,1.9072685,-5.60393,285.0,0.3900782,-0.033271793,-0.14009176
73.83095137774944,18.516297675669193,7.77,268.82672,17-15-43,0.29865676,-0.012795448,1.8359582,284.0,0.24163793,0.043697227,-0.119322345
73.83095137774944,18.516297675669193,7.77,268.82672,17-15-43,0.015350282,-1.4061327,2.5796785,284.0,0.14512122,0.011932234,-0.14681128
73.83095137774944,18.516297675669193,7.77,268.82672,17-15-43,0.64342856,-1.5334005,4.4159827,284.0,-0.09861401,0.023538673,-0.08816822
73.83095137774944,18.516297675669193,7.77,268.82672,17-15-43,1.6932354,-1.7119865,3.0024307,285.0,-0.041803546,0.0076561775,-0.082670435
73.83095137774944,18.516297675669193,7.77,268.82672,17-15-44,0.9449639,-1.224925,-0.35562664,286.0,0.20376429,0.006434447,-0.09122254
73.83095137774944,18.516297675669193,7.77,268.82672,17-15-44,0.18072891,0.24859333,-0.7516402,287.0,-0.03630576,-0.008837184,-0.047240246
73.83095137774944,18.516297675669193,7.77,268.82672,17-15-44,0.6955061,-0.51273537,-1.0493402,288.0,-0.16458745,0.043697227,-0.07350745
73.83095137774944,18.516297675669193,7.77,268.82672,17-15-44,-0.6897655,0.30618763,2.4033453,288.0,-0.1865786,0.04980588,-0.028914288
73.83095137774944,18.516297675669193,7.77,268.82672,17-15-44,-0.050720282,1.5588827,-2.3217514,288.0,-0.15237015,-0.058317266,-0.022194771
73.83092162199318,18.516234434209764,7.5899997,276.21893,17-15-44,-0.59883314,0.33112144,-1.846514,289.0,-0.027142778,-0.06931284,0.0150680095
73.83092162199318,18.516234434209764,7.5899997,276.21893,17-15-44,0.13113762,-0.53129864,-2.6235,289.0,-0.08456411,-0.043045636,0.029117912
73.83092162199318,18.516234434209764,7.5899997,276.21893,17-15-44,-0.43220413,0.14929199,-3.3232832,289.0,-0.071125075,0.040642902,0.04988733
73.83092162199318,18.516234434209764,7.5899997,276.21893,17-15-44,-0.61596537,0.8941431,-2.2924159,290.0,-0.09250536,-0.046099965,-0.040520728
73.83092162199318,18.516234434209764,7.5899997,276.21893,17-15-44,-1.7468692,0.6220827,-1.3198872,290.0,-0.15298101,-0.01311324,0.016900606
73.83092162199318,18.516234434209764,7.5899997,276.21893,17-15-45,-2.0007927,-0.37187672,-3.3221116,290.0,0.111523636,0.12249885,0.051719926
73.83092162199318,18.516234434209764,7.5899997,276.21893,17-15-45,-0.8489728,0.52538395,1.1095488,290.0,0.09075422,0.017430022,-0.12787446
73.83092162199318,18.516234434209764,7.5899997,276.21893,17-15-45,-1.7344251,0.28187943,-1.9249165,290.0,-0.027753644,0.16587028,0.015678875
73.83092162199318,18.516234434209764,7.5899997,276.21893,17-15-45,-0.7187924,-0.0011310577,-1.5356537,291.0,-0.034473162,0.092566445,0.06760242
73.83092162199318,18.516234434209764,7.5899997,276.21893,17-15-45,0.005229134,-1.924254,1.4458307,291.0,-0.017368935,0.021095213,0.047443867
73.83088381960988,18.51617446169257,7.16,283.40698,17-15-45,-0.32977864,-0.33354378,-1.5695388,290.0,-0.15908967,0.10234029,-0.033190347
73.83088381960988,18.51617446169257,7.16,283.40698,17-15-45,-0.11835736,-0.25848007,-1.0288006,290.0,0.27523553,0.032090787,-0.12237667
73.83088381960988,18.51617446169257,7.16,283.40698,17-15-45,-0.6524623,1.2470045,-2.729694,290.0,0.022337306,-0.09435832,0.008959357
73.83088381960988,18.51617446169257,7.16,283.40698,17-15-45,-0.2725452,0.14170933,-0.22461599,289.0,-0.12365949,-0.007004588,0.029728778
73.83088381960988,18.51617446169257,7.16,283.40698,17-15-45,-1.1112676,0.63738155,2.503459,291.0,0.36930877,-0.01311324,0.017511472
73.83088381960988,18.51617446169257,7.16,283.40698,17-15-46,-2.9150054,0.9944916,3.170994,292.0,0.5281337,0.030869057,-0.09000081
73.83088381960988,18.51617446169257,7.16,283.40698,17-15-46,-2.323788,0.4796362,-3.8086228,290.0,0.15122987,0.27216083,-0.20728695
73.83088381960988,18.51617446169257,7.16,283.40698,17-15-46,-0.90906614,4.2949476,-12.094388,289.0,0.68085,-0.060149863,-0.08938995
73.83088381960988,18.51617446169257,7.16,283.40698,17-15-46,-3.0378604,0.4083414,7.3540955,290.0,-0.09800314,0.17869845,-0.084503025
73.83088381960988,18.51617446169257,7.16,283.40698,17-15-46,-1.4787786,-0.36737823,-3.0640953,289.0,-0.15970053,0.03942117,0.099978276
73.83085213601589,18.516109962947667,7.43,291.0058,17-15-46,0.5569529,-0.5631418,-2.7131298,289.0,0.2843985,0.0046018516,-0.05029457
73.83085213601589,18.516109962947667,7.43,291.0058,17-15-46,-0.16088395,0.4607153,3.4843478,290.0,0.18360573,0.026593,-0.05457063
73.83085213601589,18.516109962947667,7.43,291.0058,17-15-46,3.6915977,-2.1182652,3.1484103,291.0,-0.12304862,-0.014945837,0.09509135
73.83085213601589,18.516109962947667,7.43,291.0058,17-15-46,3.163116,0.18118668,9.6680155,290.0,-0.34601444,0.09378818,0.08287405
73.83085213601589,18.516109962947667,7.43,291.0058,17-15-46,-3.4261267,0.5931454,-3.951663,291.0,-0.08334238,-0.007004588,-0.04174246
73.83085213601589,18.516109962947667,7.43,291.0058,17-15-47,-1.9629345,-0.29559612,1.058098,291.0,-0.026531912,0.08767953,-0.013642658
73.83085213601589,18.516109962947667,7.43,291.0058,17-15-47,-0.9784384,-0.71556664,3.8892093,289.0,-0.120605156,0.14449,-0.046018515
73.83085213601589,18.516109962947667,7.43,291.0058,17-15-47,0.17012627,-0.9309597,6.763105,289.0,-0.21773273,0.08157087,-0.049683705
73.83085213601589,18.516109962947667,7.43,291.0058,17-15-47,-0.8095903,-0.061820984,-4.180616,290.0,0.2422488,0.05835799,-0.07472918
73.8308289181441,18.51604638621211,7.83,298.36115,17-15-47,-0.4657954,0.83104134,4.3533716,289.0,-0.18230255,0.09989683,-0.013642658
73.8308289181441,18.51604638621211,7.83,298.36115,17-15-47,-0.5886936,0.8775263,1.2048966,289.0,-0.22995004,0.016208291,0.057828575
73.8308289181441,18.51604638621211,7.83,298.36115,17-15-47,0.37165713,0.49622917,-4.4890027,288.0,-0.6141843,-0.032660928,0.13418674
73.8308289181441,18.51604638621211,7.83,298.36115,17-15-47,0.098725766,0.37984753,0.14791799,287.0,-0.32829934,-0.06503679,0.15739962
73.8308289181441,18.51604638621211,7.83,298.36115,17-15-47,0.039916843,-0.21545887,-1.0066419,286.0,-0.088840164,-0.08214101,0.09753481
73.8308289181441,18.51604638621211,7.83,298.36115,17-15-47,-1.0598967,0.12657166,0.5177379,285.0,-0.15359189,0.0094887735,0.0010181069
73.8308289181441,18.51604638621211,7.83,298.36115,17-15-48,-0.7208323,0.71676826,2.2234902,279.0,0.07487172,-0.03876958,-0.01975131
73.8308289181441,18.51604638621211,7.83,298.36115,17-15-48,-1.1358892,0.0019321442,-0.8796868,280.0,0.0040113493,-0.026552275,0.079819724
73.8308289181441,18.51604638621211,7.83,298.36115,17-15-48,1.6922565,-0.9241648,3.1516054,281.0,-0.16947438,-0.123679854,0.07615454
73.8308289181441,18.51604638621211,7.83,298.36115,17-15-48,-0.78091955,-0.45894718,-2.6818566,280.0,0.018672116,-0.041213043,-0.005090542
73.83080687373877,18.51597233209759,8.48,306.84012,17-15-48,-0.1915642,1.3226919,1.3117099,280.0,-0.13465506,-0.06320419,0.01628974
73.83080687373877,18.51597233209759,8.48,306.84012,17-15-48,-1.1706083,1.3349848,-0.78312844,281.0,-0.02836451,-0.09496918,0.05721771
73.83080687373877,18.51597233209759,8.48,306.84012,17-15-48,-0.009472728,1.0178146,3.3442264,280.0,-0.311806,-0.10718649,0.027285315
73.83080687373877,18.51597233209759,8.48,306.84012,17-15-48,-1.9213022,-0.023778915,-2.9173331,283.0,-0.12610294,-0.028384872,-0.049683705
73.83080687373877,18.51597233209759,8.48,306.84012,17-15-48,-0.5222998,0.047249794,0.34179512,284.0,-0.027142778,0.057136264,-0.030746885
73.83080687373877,18.51597233209759,8.48,306.84012,17-15-48,-2.2506857,1.215702,-2.283437,286.0,-0.08761843,0.045529824,0.009570222
73.83080687373877,18.51597233209759,8.48,306.84012,17-15-49,-0.7543961,1.5287418,-0.18665248,288.0,-0.065627284,0.05774713,-0.03380121
73.83080687373877,18.51597233209759,8.48,306.84012,17-15-49,0.06489362,-1.2664232,-0.66037995,288.0,0.046771914,0.0705753,-0.013031792
73.83080687373877,18.51597233209759,8.48,306.84012,17-15-49,1.7007787,0.832798,5.7035294,288.0,0.29783753,0.020484347,-0.085724756
73.83080687373877,18.51597233209759,8.48,306.84012,17-15-49,0.30173472,-0.2001276,-3.7218437,288.0,-0.021034125,0.08829039,-0.04296419
73.83080687373877,18.51597233209759,8.48,306.84012,17-15-49,-1.4578658,0.69406414,-4.778536,288.0,0.29600495,0.123109706,-0.11443542
73.83078139275312,18.515899912454188,8.75,315.20917,17-15-49,-1.0683235,1.9373693,1.0330753,289.0,0.04493932,0.10600548,-0.14803301
73.83078139275312,18.515899912454188,8.75,315.20917,17-15-49,-0.19718145,0.37670612,-2.3653426,292.0,-0.07356854,0.095620774,-0.056403223
73.83078139275312,18.515899912454188,8.75,315.20917,17-15-49,2.025251,0.9269724,0.86395204,292.0,-0.02836451,0.11333586,-0.07839437
73.83078139275312,18.515899912454188,8.75,315.20917,17-15-49,1.7158674,0.949317,2.567174,290.0,-0.17069611,-0.012502376,0.010181088
73.83078139275312,18.515899912454188,8.75,315.20917,17-15-49,-0.06929609,0.30997372,-3.5142648,289.0,0.25019005,0.08584693,-0.08938995
73.83078139275312,18.515899912454188,8.75,315.20917,17-15-50,-0.29032046,1.5744991,2.0815492,289.0,0.2104838,0.03453425,0.019344065
73.83078139275312,18.515899912454188,8.75,315.20917,17-15-50,-2.546461,0.29975986,-5.6940413,290.0,-0.08456411,-0.032660928,0.14457145
73.83078139275312,18.515899912454188,8.75,315.20917,17-15-50,-2.0056386,-1.042553,-5.7513413,290.0,0.18849266,0.18602884,-0.058846686
73.83078139275312,18.515899912454188,8.75,315.20917,17-15-50,-1.8065013,1.0070028,-0.3168553,289.0,0.042495858,0.055914532,0.0034615695
73.83075683377683,18.515820829197764,9.37,324.28952,17-15-50,1.8423289,1.4995995,3.5471683,288.0,0.092586815,0.02903646,0.048665598
73.83075683377683,18.515820829197764,9.37,324.28952,17-15-50,-1.3449612,-2.039897,-5.1730804,284.0,-0.058907773,-0.06442592,0.07065675
73.83075683377683,18.515820829197764,9.37,324.28952,17-15-50,-2.0307271,0.09131241,-0.9311142,282.0,-0.21101321,-0.032050062,0.032172233
73.83075683377683,18.515820829197764,9.37,324.28952,17-15-50,-0.44526786,-0.7244482,-0.6921201,283.0,-0.07540113,0.005823582,-0.015475253
73.83075683377683,18.515820829197764,9.37,324.28952,17-15-50,2.8234048,-0.14167595,1.3600293,282.0,-0.023477588,0.02537127,-0.06617707
73.83075683377683,18.515820829197764,9.37,324.28952,17-15-50,2.3183374,-0.35054207,2.4256425,281.0,-0.025310185,-0.025941411,-0.016696984
73.83075683377683,18.515820829197764,9.37,324.28952,17-15-51,0.39590788,0.19058418,-0.86000526,282.0,0.043106724,0.011932234,-0.04540765
73.83075683377683,18.515820829197764,9.37,324.28952,17-15-51,-1.0121586,1.0155764,-1.2595913,283.0,-0.049133927,-0.06931284,0.0327831
73.83075683377683,18.515820829197764,9.37,324.28952,17-15-51,-0.6177847,1.0005531,-0.7860872,283.0,-0.20918062,-0.04243477,0.05843944
73.83075683377683,18.515820829197764,9.37,324.28952,17-15-51,-1.27898,1.355876,-0.26912677,283.0,-0.069903344,0.04614069,-0.014253523
73.83075683377683,18.515820829197764,9.37,324.28952,17-15-51,-1.699903,1.1126995,-0.3396101,283.0,0.050437108,0.030258192,-0.093666
73.83073202334344,18.51572443731129,10.09,335.25958,17-15-51,0.52038187,0.32158566,-0.22632217,285.0,0.16100372,0.043697227,-0.04907284
73.83073202334344,18.51572443731129,10.09,335.25958,17-15-51,2.225863,-0.25571537,4.1731596,286.0,0.11518883,3.257948E-4,-0.10832677
73.83073202334344,18.51572443731129,10.09,335.25958,17-15-51,0.48405617,-0.267663,1.3166181,288.0,-0.04119268,-0.13467541,0.05416338
73.83073202334344,18.51572443731129,10.09,335.25958,17-15-51,0.40961337,2.3620892,1.1012784,292.0,-0.31241685,-0.15300137,0.16350827
73.83073202334344,18.51572443731129,10.09,335.25958,17-15-51,0.36799935,0.4943962,-0.833945,293.0,-0.07479026,-0.066869386,0.16778433
73.83073202334344,18.51572443731129,10.09,335.25958,17-15-52,-0.3430829,-1.9701843,6.293644,292.0,0.48048624,-0.06992371,-0.010588331
73.83073202334344,18.51572443731129,10.09,335.25958,17-15-52,1.3087614,0.692461,2.7346792,292.0,0.17077756,0.04858415,-0.12176581
73.83073202334344,18.51572443731129,10.09,335.25958,17-15-52,1.3185205,0.48487473,2.5681958,291.0,-0.036916625,0.03453425,0.015678875
73.83073202334344,18.51572443731129,10.09,335.25958,17-15-52,-1.146843,-0.7144413,0.22988194,291.0,0.013174328,0.007045313,0.006515894
73.83070168085396,18.515630685724318,10.4,346.0541,17-15-52,-1.7765113,-0.019021988,-0.69647133,289.0,-0.013703742,0.06385578,0.07187848
73.83070168085396,18.515630685724318,10.4,346.0541,17-15-52,-0.9039086,0.3430643,-1.5266116,289.0,-0.23850214,0.13960308,-0.062511876
73.83070168085396,18.515630685724318,10.4,346.0541,17-15-52,1.5167603,-1.0771542,2.2356174,289.0,0.12923872,0.20863083,-0.00447968
73.83070168085396,18.515630685724318,10.4,346.0541,17-15-52,1.1643326,-1.0557575,1.8135512,290.0,-0.14137457,-0.028995737,0.010181088
73.83070168085396,18.515630685724318,10.4,346.0541,17-15-52,1.3015344,-1.1982574,3.4295537,289.0,-0.16336572,0.003380121,0.06149377
73.83070168085396,18.515630685724318,10.4,346.0541,17-15-52,-0.10745952,0.6158266,-2.1784418,288.0,-0.0014864383,0.042475495,0.079819724
73.83070168085396,18.515630685724318,10.4,346.0541,17-15-53,-2.053449,1.1139097,8.651589,288.0,-0.6642752,0.07607309,0.021787524
73.83070168085396,18.515630685724318,10.4,346.0541,17-15-53,-0.29418695,1.2245016,-5.245174,288.0,0.018672116,0.03697771,0.109752126
73.83070168085396,18.515630685724318,10.4,346.0541,17-15-53,1.9023598,-1.680378,0.073210195,288.0,0.10480412,0.020484347,-0.08694649
73.83070168085396,18.515630685724318,10.4,346.0541,17-15-53,0.5089235,-0.70332146,-0.9643916,289.0,0.14756468,-0.072978035,0.09386962
73.8306740205735,18.51553626358509,10.36,356.87085,17-15-53,1.7274765,-0.00370121,1.4862516,291.0,0.06326528,-0.08153015,0.17633644
73.8306740205735,18.51553626358509,10.36,356.87085,17-15-53,-1.1949995,0.35221767,-1.2291864,288.0,3.461577E-4,0.043697227,0.031561367
73.8306740205735,18.51553626358509,10.36,356.87085,17-15-53,0.13275516,-0.24255562,0.29696226,287.0,0.06876307,0.0076561775,0.0327831
73.8306740205735,18.51553626358509,10.36,356.87085,17-15-53,0.66224384,0.62286663,-0.6459744,285.0,-0.033862296,0.03819944,-0.021583905
73.8306740205735,18.51553626358509,10.36,356.87085,17-15-53,-0.77924323,0.49390793,-0.4603221,285.0,0.07181739,0.03697771,-0.0020362176
73.8306740205735,18.51553626358509,10.36,356.87085,17-15-53,0.08104074,0.07814407,0.3002987,285.0,-0.06379469,-0.02105449,0.046222135
73.8306740205735,18.51553626358509,10.36,356.87085,17-15-54,-0.26833326,-0.33635807,0.8842373,284.0,0.054713164,-0.030217469,0.05416338
73.8306740205735,18.51553626358509,10.36,356.87085,17-15-54,-0.13357832,-0.108522415,0.34329963,284.0,0.042495858,-0.07664323,0.035837427
73.8306740205735,18.51553626358509,10.36,356.87085,17-15-54,-0.10789433,0.21694374,-0.5648042,283.0,-0.060129505,0.0027692558,0.0071267597
73.8306740205735,18.51553626358509,10.36,356.87085,17-15-54,-0.66795117,-0.13764572,0.7575316,284.0,-0.00637336,-0.07603236,0.110362984
73.83064535446465,18.51544096134603,10.15,367.8059,17-15-54,0.09826699,-0.73895264,0.011704445,283.0,0.0027896184,-0.019221893,-0.019140445
73.83064535446465,18.51544096134603,10.15,367.8059,17-15-54,0.61535835,-0.032978058,1.8072551,283.0,-0.008816821,-8.959356E-4,-0.0234165
73.83064535446465,18.51544096134603,10.15,367.8059,17-15-54,-0.044176728,-0.20628834,1.002341,283.0,0.013174328,-0.022276219,-0.022194771
73.83064535446465,18.51544096134603,10.15,367.8059,17-15-54,0.13446319,-0.59925747,1.1448222,283.0,0.005843945,0.015597426,-0.081448704
73.83064535446465,18.51544096134603,10.15,367.8059,17-15-54,-0.18222708,-0.17429733,1.2475591,283.0,0.017450385,-0.059538998,-0.020362174
73.83064535446465,18.51544096134603,10.15,367.8059,17-15-54,-0.71386707,0.17314339,0.84919,283.0,-0.04485787,0.041253768,-0.07350745
73.83064535446465,18.51544096134603,10.15,367.8059,17-15-55,0.32760012,-1.27075,-1.2175772,283.0,-2.6470795E-4,-0.0015068008,-0.06923139
73.83064535446465,18.51544096134603,10.15,367.8059,17-15-55,-0.8175351,-0.9650707,-0.9209897,282.0,0.005843945,-0.02716314,0.0034615695
73.83064535446465,18.51544096134603,10.15,367.8059,17-15-55,0.007270336,-0.69605637,-1.3039708,282.0,-0.028975375,-0.017389297,-0.05029457
73.83064535446465,18.51544096134603,10.15,367.8059,17-15-55,0.519087,-0.6372347,0.7651181,282.0,0.042495858,-0.004561127,-0.03502294
73.83062624372542,18.515352616086602,8.7,377.79028,17-15-55,0.33863157,-0.5969267,0.7074106,282.0,-0.06807075,-0.096190915,0.03828089
73.83062624372542,18.515352616086602,8.7,377.79028,17-15-55,-0.12633508,0.13404274,1.3018273,282.0,-0.0069842255,-0.055262942,0.0034615695
73.83062624372542,18.515352616086602,8.7,377.79028,17-15-55,-1.4127944,0.4020033,0.0029144287,282.0,0.096252,-0.09008226,0.0077376254
73.83062624372542,18.515352616086602,8.7,377.79028,17-15-55,0.3522613,-0.52038,-0.22677755,282.0,0.042495858,-0.052208617,-0.03807727
73.83062624372542,18.515352616086602,8.7,377.79028,17-15-55,1.247689,-0.15983963,0.4264613,280.0,0.059600085,-0.085806206,-0.09000081
73.83062624372542,18.515352616086602,8.7,377.79028,17-15-55,1.967969,2.326684,1.8606623,282.0,0.08220211,-0.2702875,0.023009256
73.83062624372542,18.515352616086602,8.7,377.79028,17-15-56,-0.49856442,1.6333017,-1.2977649,279.0,0.20315342,-0.035715256,-0.26654086
73.83062624372542,18.515352616086602,8.7,377.79028,17-15-56,0.8530698,-4.3395643,-1.0751684,281.0,0.1842166,0.026593,-0.18285233
73.83062624372542,18.515352616086602,8.7,377.79028,17-15-56,3.4621177,-0.9134445,-0.09756079,286.0,0.28317678,-0.15422311,-0.04662938
73.83062624372542,18.515352616086602,8.7,377.79028,17-15-56,3.8899922,-1.7467537,2.7384548,288.0,0.025391633,-0.15666658,-0.0063122734
73.83060771971941,18.515277933329344,8.0199995,386.2795,17-15-56,-1.2055058,-3.4956546,3.8544543,290.0,0.060821816,-0.11329514,0.23009259
73.83060771971941,18.515277933329344,8.0199995,386.2795,17-15-56,0.6418378,-0.95184803,4.9675393,292.0,-0.28248444,-0.1420058,0.3858632
73.83060771971941,18.515277933329344,8.0199995,386.2795,17-15-56,1.8074871,0.24571133,-3.8225837,292.0,-0.040581815,-0.19087502,0.20077103
73.83060771971941,18.515277933329344,8.0199995,386.2795,17-15-56,0.7443243,-0.14434147,6.4875274,291.0,-0.59708005,-0.1401732,0.14640403
73.83060771971941,18.515277933329344,8.0199995,386.2795,17-15-56,-1.0419376,0.63167953,-0.9702099,291.0,-0.016147204,-0.041213043,0.0627155
73.83060771971941,18.515277933329344,8.0199995,386.2795,17-15-56,0.32592386,2.3761873,1.0136738,292.0,-0.17375043,-0.055873808,0.21665356
73.83060771971941,18.515277933329344,8.0199995,386.2795,17-15-57,5.338616,2.12288,-4.9298654,290.0,-0.015536339,-0.28494826,0.359596
73.83060771971941,18.515277933329344,8.0199995,386.2795,17-15-57,3.495791,3.2170267,4.0865397,289.0,0.15000814,0.019262617,0.09509135
73.83060771971941,18.515277933329344,8.0199995,386.2795,17-15-57,-5.959079,-2.0801215,-1.2268085,288.0,0.45727336,0.07424049,-0.07472918
73.83060771971941,18.515277933329344,8.0199995,386.2795,17-15-57,3.1161473,-0.19333076,-4.5604467,289.0,-0.013092878,0.17258981,-0.19812396
73.83059087209404,18.51521138101816,6.58,393.85178,17-15-57,2.6632822,-1.4079752,2.8136845,289.0,-0.21040235,0.067520976,0.14029539
73.83059087209404,18.51521138101816,6.58,393.85178,17-15-57,1.7177596,-0.3092184,-1.3260872,288.0,0.050437108,0.0546928,0.05110906
73.83059087209404,18.51521138101816,6.58,393.85178,17-15-57,-2.4892948,-0.42438602,-3.915487,288.0,-0.2782084,0.055914532,-0.031968616
73.83059087209404,18.51521138101816,6.58,393.85178,17-15-57,-0.058100015,1.1214056,-3.0626783,288.0,-0.09922487,0.09989683,-0.050905436
73.83059087209404,18.51521138101816,6.58,393.85178,17-15-57,-0.35052508,1.4644518,-3.950176,288.0,-0.06318382,0.123109706,-0.047240246
73.83059087209404,18.51521138101816,6.58,393.85178,17-15-57,-0.6490722,1.2799053,-1.4525943,288.0,-0.011260281,0.13166183,-0.10649417
73.83059087209404,18.51521138101816,6.58,393.85178,17-15-58,-0.0062616915,0.8258877,2.93084,287.0,0.43650395,0.07607309,-0.113213696
73.83059087209404,18.51521138101816,6.58,393.85178,17-15-58,1.433013,0.76242924,-4.4465966,287.0,-0.03997095,0.07424049,-0.124820136
73.83059087209404,18.51521138101816,6.58,393.85178,17-15-58,0.32391748,0.9129181,-0.04159224,287.0,0.051047973,0.06996443,-0.09183341
73.83059087209404,18.51521138101816,6.58,393.85178,17-15-58,0.03697803,-0.0077114105,0.84661216,288.0,0.0522697,-0.011280645,-0.035633806
73.83056949824095,18.51515735965222,5.92,400.1595,17-15-58,-0.06998071,-0.5655279,0.8335884,290.0,0.087089024,-0.08702794,0.09448049
73.83056949824095,18.51515735965222,5.92,400.1595,17-15-58,0.8886178,0.24565125,-0.8507266,288.0,-0.090061896,-0.022276219,0.028507046
73.83056949824095,18.51515735965222,5.92,400.1595,17-15-58,1.9423528,0.3441887,0.29997486,285.0,0.04860451,-0.08824967,0.043167807
73.83056949824095,18.51515735965222,5.92,400.1595,17-15-58,0.27047598,0.23132992,1.5235336,285.0,-0.048523065,0.02292781,-0.062511876
73.83056949824095,18.51515735965222,5.92,400.1595,17-15-58,-1.1406875,0.38053322,1.4623907,286.0,-0.17680477,0.003380121,-0.040520728
73.83056949824095,18.51515735965222,5.92,400.1595,17-15-58,-0.2945426,1.0269794,-0.4915005,286.0,0.01928298,-0.059538998,0.02239839
73.83056949824095,18.51515735965222,5.92,400.1595,17-15-59,0.7249162,0.57379436,-0.83991534,286.0,-0.038749218,-0.021665353,-0.04785111
73.83056949824095,18.51515735965222,5.92,400.1595,17-15-59,0.8980586,0.053702354,-1.8267859,285.0,0.14573209,-0.054652076,-0.057624955
73.83056949824095,18.51515735965222,5.92,400.1595,17-15-59,0.1230005,0.87973213,2.0752485,287.0,-0.04485787,-0.09985611,-0.022194771
73.83056949824095,18.51515735965222,5.92,400.1595,17-15-59,-0.20482144,0.47185802,1.7647967,288.0,0.03211115,-0.024108816,-0.036855537
73.83054871112108,18.51510618813336,5.7599998,406.14835,17-15-59,0.89685166,-0.28146076,1.0869575,288.0,0.051047973,0.015597426,-0.07106399
73.83054871112108,18.51510618813336,5.7599998,406.14835,17-15-59,0.6524211,-0.046987534,0.9521301,289.0,-0.035084028,-0.09985611,0.05110906
73.83054871112108,18.51510618813336,5.7599998,406.14835,17-15-59,-0.3976435,1.016139,2.2819498,289.0,0.019893846,-0.07236717,0.0187332
73.83054871112108,18.51510618813336,5.7599998,406.14835,17-15-59,0.34743384,0.10820389,-0.85184646,289.0,-0.024088454,0.008877909,-0.060068414
73.83054871112108,18.51510618813336,5.7599998,406.14835,17-15-59,0.27190468,0.45922565,1.300673,290.0,0.010730867,-0.03876958,-0.02097304
73.83054871112108,18.51510618813336,5.7599998,406.14835,17-15-59,-0.8002938,0.598238,-0.45453882,291.0,-0.038138352,-0.058928132,0.037670024
73.83054871112108,18.51510618813336,5.7599998,406.14835,17-16-00,-0.094434924,0.10150528,-1.595844,291.0,0.087089024,-0.05037602,-0.008755736
73.83054871112108,18.51510618813336,5.7599998,406.14835,17-16-00,0.2658866,0.48803425,-2.4290426,291.0,0.016228653,-0.004561127,-0.025859963
73.83054871112108,18.51510618813336,5.7599998,406.14835,17-16-00,-0.344546,0.16799831,-1.9110868,291.0,0.05898922,-0.047321696,0.020565797
73.83054871112108,18.51510618813336,5.7599998,406.14835,17-16-00,0.048389647,0.21133518,-0.96905077,291.0,-0.05951864,0.0015475252,-0.012420926
73.83054317906499,18.515077270567417,1.9599999,409.40118,17-16-00,0.41918403,0.15677834,-0.9086434,292.0,-0.07234681,0.007045313,-0.013031792
73.83054317906499,18.515077270567417,1.9599999,409.40118,17-16-00,-0.27470922,0.5646801,-0.31155545,292.0,0.023559038,-0.039380446,0.012013681
73.83054317906499,18.515077270567417,1.9599999,409.40118,17-16-00,-0.41339827,0.37673664,-0.79094523,291.0,-0.024088454,-0.06442592,0.074932806
73.83054317906499,18.515077270567417,1.9599999,409.40118,17-16-00,-0.037713647,0.09015083,0.13804945,290.0,0.06326528,-0.047321696,-0.0099774655
73.83054317906499,18.515077270567417,1.9599999,409.40118,17-16-00,0.7139809,-0.03548813,-2.0622926,289.0,-0.013092878,-0.058928132,-0.039909862
73.83054317906499,18.515077270567417,1.9599999,409.40118,17-16-00,0.16256228,0.49920273,3.2075984,289.0,0.15733853,-0.022887085,0.011402819
73.83054317906499,18.515077270567417,1.9599999,409.40118,17-16-01,0.72924423,0.023726463,1.0986019,289.0,0.049826242,-0.034493525,-0.00447968
73.83054317906499,18.515077270567417,1.9599999,409.40118,17-16-01,-0.23696254,-0.100224495,0.26224983,288.0,-0.031418838,-0.07908668,0.034615695
73.83054317906499,18.515077270567417,1.9599999,409.40118,17-16-01,0.3241973,-0.084160805,0.33469784,289.0,-0.014925473,-0.07053457,-0.006923139
73.83054317906499,18.515077270567417,1.9599999,409.40118,17-16-01,-0.14164369,-0.14334297,-0.855228,288.0,0.0021787537,-0.07603236,-0.028914288
73.83054359816015,18.51506226696074,1.49,411.0191,17-16-01,-1.0357364,0.41001225,0.3024708,289.0,-0.030197106,-0.084584475,-0.016696984
73.83054359816015,18.51506226696074,1.49,411.0191,17-16-01,-0.48258215,0.56445694,0.043444037,291.0,-0.0033190334,-0.05037602,0.012013681
73.83054359816015,18.51506226696074,1.49,411.0191,17-16-01,0.18879956,0.26027203,-0.2350415,291.0,9.5702335E-4,-0.0894714,0.025452718
73.83054359816015,18.51506226696074,1.49,411.0191,17-16-01,0.41378728,0.09220028,-0.3314157,290.0,0.01806125,-0.0717563,-0.00814487
73.83054359816015,18.51506226696074,1.49,411.0191,17-16-01,-0.07754779,0.17352772,-0.14853698,290.0,0.055934895,-0.052208617,-0.017918713
73.83054359816015,18.51506226696074,1.49,411.0191,17-16-01,-0.15350524,0.01830864,-0.697569,290.0,0.06570874,-0.05037602,-0.010588331
73.83054359816015,18.51506226696074,1.49,411.0191,17-16-02,-0.17294484,0.29115582,0.5018857,290.0,0.043106724,-0.07236717,0.014457144
73.83054359816015,18.51506226696074,1.49,411.0191,17-16-02,0.35893577,-0.25406456,0.5901912,291.0,0.042495858,-0.09130399,0.013846278
73.83054359816015,18.51506226696074,1.49,411.0191,17-16-02,0.3643189,-0.11201477,-0.21935701,290.0,0.030889422,-0.08397361,0.010791954
73.83054359816015,18.51506226696074,1.49,411.0191,17-16-02,-0.17482567,-0.13025379,-0.7033663,290.0,0.026613362,-0.07053457,0.0010181069
73.83054259233177,18.515052837319672,0.84,412.06296,17-16-02,0.1861816,0.29801846,-0.43423724,290.0,0.0027896184,-0.09985611,0.004072435
73.83054259233177,18.515052837319672,0.84,412.06296,17-16-02,0.29012597,0.20763111,-1.7952533,290.0,0.022948172,-0.13101023,0.005905032
73.83054259233177,18.515052837319672,0.84,412.06296,17-16-02,0.6896075,0.12615395,0.14459431,290.0,-0.043025274,-0.124901585,0.07310021
73.83054259233177,18.515052837319672,0.84,412.06296,17-16-02,0.256186,0.10423851,-2.4860578,290.0,0.00645481,-0.07114544,0.014457144
73.83054259233177,18.515052837319672,0.84,412.06296,17-16-02,1.0396888,1.2855196,0.8915391,289.0,0.06021095,-0.078475825,-0.013642658
73.83054259233177,18.515052837319672,0.84,412.06296,17-16-02,0.31984147,0.00582695,-0.9548651,288.0,-0.097392276,-0.1316211,-0.03868813
73.83054259233177,18.515052837319672,0.84,412.06296,17-16-03,0.74988574,0.86720085,-0.560225,289.0,-0.030197106,-0.10413216,0.02667445
73.83054259233177,18.515052837319672,0.84,412.06296,17-16-03,0.239451,1.3059998,-1.2518108,290.0,-0.10350093,-0.12551245,0.098756544
73.83054259233177,18.515052837319672,0.84,412.06296,17-16-03,1.7870255,1.8018465,4.6512384,290.0,0.23430754,-0.07908668,-0.10588331
73.83054259233177,18.515052837319672,0.84,412.06296,17-16-03,0.3796569,0.77741814,2.0373476,292.0,0.27095947,-0.06625852,-0.029525153
73.83053932338953,18.515043281950057,1.12,413.16833,17-16-03,-0.077535525,0.6049309,-1.2997293,293.0,0.17077756,-0.12429071,-0.005090542
73.83053932338953,18.515043281950057,1.12,413.16833,17-16-03,-1.7030919,-0.448781,3.5090551,297.0,-0.011871147,-0.19881627,-0.11565715
73.83053932338953,18.515043281950057,1.12,413.16833,17-16-03,3.879456,-1.4879436,9.882672,297.0,0.36442184,-0.28189394,-0.14803301
73.83053932338953,18.515043281950057,1.12,413.16833,17-16-03,-0.94327164,1.6904163,-1.2446948,299.0,0.16589065,-0.16521868,0.0187332
73.83053932338953,18.515043281950057,1.12,413.16833,17-16-03,0.07243657,-1.118289,-0.33916998,300.0,-0.2672128,-0.116349466,-0.005090542
73.83053932338953,18.515043281950057,1.12,413.16833,17-16-03,-1.8136175,2.1790667,0.95240605,301.0,-0.08089892,-0.17132735,-0.052738033
73.83053932338953,18.515043281950057,1.12,413.16833,17-16-04,0.5475018,-1.0604668,1.5796932,303.0,0.015617789,-0.26601145,0.035837427
73.83053932338953,18.515043281950057,1.12,413.16833,17-16-04,-1.3435249,1.7435465,-1.942635,304.0,-0.21528926,-0.24402031,-0.120544076
73.83053932338953,18.515043281950057,1.12,413.16833,17-16-04,0.82980925,0.16865253,-1.896424,305.0,0.16161458,-0.25501588,-0.04907284
73.83053932338953,18.515043281950057,1.12,413.16833,17-16-04,-2.1907623,1.4410343,-0.6037656,307.0,-0.12976813,-0.25868106,-0.05701409
73.83052859455347,18.51503049954772,2.08,414.7824,17-16-04,0.83533096,1.0902758,-2.698843,308.0,-0.008816821,-0.13039938,-0.09488773
73.83052859455347,18.51503049954772,2.08,414.7824,17-16-04,-0.3211942,-0.5132122,1.8690637,310.0,9.5702335E-4,-0.33992615,0.074932806
73.83052859455347,18.51503049954772,2.08,414.7824,17-16-04,-1.3605139,0.75110817,1.2731541,312.0,-0.12549208,-0.20492494,-0.09122254
73.83052859455347,18.51503049954772,2.08,414.7824,17-16-04,1.446547,-0.40938663,-0.98390293,313.0,0.14084516,-0.19331849,-0.04540765
73.83052859455347,18.51503049954772,2.08,414.7824,17-16-04,-0.36921093,-1.0890436,1.2617595,315.0,0.20742948,-0.35519776,0.048665598
73.83052859455347,18.51503049954772,2.08,414.7824,17-16-04,1.2135768,0.2996788,-0.82968795,316.0,-0.014314608,-0.2751744,-0.013031792
73.83052859455347,18.51503049954772,2.08,414.7824,17-16-05,1.1734195,0.31929684,-2.7043262,317.0,0.28928542,-0.3387044,0.0010181069
73.83052859455347,18.51503049954772,2.08,414.7824,17-16-05,0.6340116,-0.82244873,1.7295343,318.0,0.07853691,-0.3619173,0.049276464
73.83052859455347,18.51503049954772,2.08,414.7824,17-16-05,0.048171043,0.45540714,1.6930671,318.0,-0.104722664,-0.37108028,0.019344065
73.83052859455347,18.51503049954772,2.08,414.7824,17-16-05,-0.18559623,1.0343237,-3.3297076,319.0,-0.30203214,-0.34114787,0.016900606
73.83051384240389,18.515024799853563,2.1499999,415.71793,17-16-05,0.85017014,0.92553043,0.3718775,321.0,0.09014335,-0.33503923,-0.03502294
73.83051384240389,18.515024799853563,2.1499999,415.71793,17-16-05,1.1961312,-0.9833183,1.1734126,323.0,0.08953249,-0.43277764,0.035837427
73.83051384240389,18.515024799853563,2.1499999,415.71793,17-16-05,0.025242269,-0.15956306,2.8592432,324.0,0.12557353,-0.38940623,0.02667445
73.83051384240389,18.515024799853563,2.1499999,415.71793,17-16-05,0.1337842,0.29468727,-2.135677,326.0,-0.026531912,-0.37108028,-0.00814487
73.83051384240389,18.515024799853563,2.1499999,415.71793,17-16-05,-0.6330498,0.8295126,-2.6942291,329.0,-0.16275486,-0.37779978,0.062104635
73.83051384240389,18.515024799853563,2.1499999,415.71793,17-16-05,0.5776084,0.53386116,-0.47581077,331.0,0.1860492,-0.39979094,0.040113486
73.83051384240389,18.515024799853563,2.1499999,415.71793,17-16-06,1.4060745,-0.48418236,2.2304144,332.0,0.098695464,-0.3387044,-0.04785111
73.83051384240389,18.515024799853563,2.1499999,415.71793,17-16-06,-0.031596065,-1.353385,0.71455693,334.0,0.23003149,-0.37535632,0.0010181069
73.83051384240389,18.515024799853563,2.1499999,415.71793,17-16-06,-0.31819445,-1.6547756,0.35964465,336.0,0.04371759,-0.4144517,0.033393964
73.83051384240389,18.515024799853563,2.1499999,415.71793,17-16-06,0.5322659,-1.1739511,1.9507366,339.0,-0.08945103,-0.35092172,0.029117912
73.83049439638853,18.515025763772428,2.4299998,416.04095,17-16-06,-0.76453304,-0.2837696,-0.669139,341.0,0.023559038,-0.33442834,0.006515894
73.83049439638853,18.515025763772428,2.4299998,416.04095,17-16-06,-1.4726708,0.5527868,-2.53539,344.0,-0.15725708,-0.29777643,0.04988733
73.83049439638853,18.515025763772428,2.4299998,416.04095,17-16-06,-1.622761,0.10621071,-2.5858994,347.0,-0.26110417,-0.27822876,0.08165232
73.83049439638853,18.515025763772428,2.4299998,416.04095,17-16-06,0.043415964,-0.14023876,2.8271296,350.0,-0.10350093,-0.23302472,0.041946083
73.83049439638853,18.515025763772428,2.4299998,416.04095,17-16-06,-0.45601386,-0.1907816,1.4126625,352.0,-0.07540113,-0.23058125,0.06638069
73.83049439638853,18.515025763772428,2.4299998,416.04095,17-16-06,-0.7885116,0.81928825,0.1324147,353.0,-0.06807075,-0.16644043,0.046833
73.83049439638853,18.515025763772428,2.4299998,416.04095,17-16-07,-0.7841136,0.36814594,0.23132807,357.0,0.013174328,-0.06992371,-0.025859963
73.83049439638853,18.515025763772428,2.4299998,416.04095,17-16-07,-0.61671096,0.38428974,0.45423025,0.0,0.045550186,-0.100466974,0.038891755
73.83049439638853,18.515025763772428,2.4299998,416.04095,17-16-07,0.39315936,-0.042266846,0.907835,1.0,0.07609345,-0.054652076,0.019954931
73.83049439638853,18.515025763772428,2.4299998,416.04095,17-16-07,-0.058476448,0.711895,-0.6718594,2.0,0.072428256,-0.04243477,-0.005090542
73.8304750341922,18.515023291110992,2.5,416.74344,17-16-07,-0.1813786,-0.021874428,-0.75867844,3.0,-0.005762494,-0.013724105,0.011402819
73.8304750341922,18.515023291110992,2.5,416.74344,17-16-07,1.0306892,0.2522335,0.03519523,4.0,-0.071125075,0.010099638,-0.006923139
73.8304750341922,18.515023291110992,2.5,416.74344,17-16-07,0.45351127,-0.0030546188,-0.22948503,3.0,0.046771914,-0.03388266,0.06638069
73.8304750341922,18.515023291110992,2.5,416.74344,17-16-07,-0.51963526,0.33277416,-0.66580784,2.0,0.015617789,0.019873483,-0.025249097
73.8304750341922,18.515023291110992,2.5,416.74344,17-16-07,0.40593353,-0.2551689,0.48284727,2.0,-0.08028805,-0.030217469,0.028507046
73.8304750341922,18.515023291110992,2.5,416.74344,17-16-07,-0.025213934,-0.13201809,-0.45309508,2.0,-0.06074037,-0.028384872,0.024230987
73.8304750341922,18.515023291110992,2.5,416.74344,17-16-08,-0.124628544,0.67673016,-0.49013853,1.0,-0.0479122,-0.011280645,4.07245E-4
73.8304750341922,18.515023291110992,2.5,416.74344,17-16-08,-0.1082713,-0.03848648,0.73651516,359.0,-0.048523065,-0.036936983,0.030950509
73.8304750341922,18.515023291110992,2.5,416.74344,17-16-08,-0.42355072,0.58719826,-0.46109188,358.0,0.106025845,-0.02349795,-0.056403223
73.8304750341922,18.515023291110992,2.5,416.74344,17-16-08,0.20220509,-0.09449959,0.8277888,358.0,-0.061351236,-0.056484673,0.004683301
73.83044720627367,18.515024087391794,2.8,417.29935,17-16-08,0.27713266,0.36664772,-0.7535788,358.0,0.039441533,-0.07481063,0.005905032
73.83044720627367,18.515024087391794,2.8,417.29935,17-16-08,-0.048235923,0.18709373,0.7749349,358.0,-0.0106494175,-0.07114544,-0.014864387
73.83044720627367,18.515024087391794,2.8,417.29935,17-16-08,-0.4332371,-0.042057037,-0.5344211,359.0,0.06570874,-0.11085168,0.029728778
73.83044720627367,18.515024087391794,2.8,417.29935,17-16-08,0.078983516,0.24353123,-1.1748253,359.0,0.045550186,-0.07603236,-0.005701408
73.83044720627367,18.515024087391794,2.8,417.29935,17-16-08,-0.66459,0.025416374,1.5031697,358.0,-0.044247005,-0.041213043,-0.043575056
73.83044720627367,18.515024087391794,2.8,417.29935,17-16-08,-1.3325722,-0.26351547,-0.41332245,359.0,-0.058296908,-0.068701975,0.033393964
73.83044720627367,18.515024087391794,2.8,417.29935,17-16-09,0.5364692,0.9444456,-0.64239275,359.0,-0.06807075,-0.09680178,-0.0038688146
73.83044720627367,18.515024087391794,2.8,417.29935,17-16-09,2.598798,1.3166113,-0.49101564,353.0,0.012563462,-0.06198246,-0.11626802
73.83044720627367,18.515024087391794,2.8,417.29935,17-16-09,-1.0106434,-0.09791565,-2.2926273,354.0,0.051047973,-0.13772976,0.014457144
73.83044720627367,18.515024087391794,2.8,417.29935,17-16-09,-1.4038029,0.73862076,-1.1196412,359.0,0.008287406,-0.18720984,0.06699155
73.8304184563458,18.515026685781777,3.29,417.70328,17-16-09,0.7745783,1.5847616,0.8577309,0.0,0.024169903,-0.12123639,0.051719926
73.8304184563458,18.515026685781777,3.29,417.70328,17-16-09,-0.27031216,0.5741215,1.170835,0.0,0.15489507,-0.07053457,-0.0099774655
73.8304184563458,18.515026685781777,3.29,417.70328,17-16-09,-0.13034225,0.23382759,-1.5583693,1.0,0.19093612,-0.09985611,0.062104635
73.8304184563458,18.515026685781777,3.29,417.70328,17-16-09,2.0402246,-0.12522984,-1.3783765,0.0,0.15733853,-0.13039938,0.14090624
73.8304184563458,18.515026685781777,3.29,417.70328,17-16-09,-0.6366306,-1.7278919,0.9204782,357.0,-0.1725287,-0.010058914,-0.06800966
73.8304184563458,18.515026685781777,3.29,417.70328,17-16-09,-1.460089,0.5329113,-0.18628657,359.0,-0.2006285,-0.022276219,-0.03502294
73.8304184563458,18.515026685781777,3.29,417.70328,17-16-10,0.3950123,0.44147587,0.08499563,1.0,-0.15481362,-0.014945837,-0.024638232
73.8304184563458,18.515026685781777,3.29,417.70328,17-16-10,-0.1654606,1.2095909,-2.0570416,3.0,0.0027896184,-0.043656502,-0.03624467
73.8304184563458,18.515026685781777,3.29,417.70328,17-16-10,-0.708302,0.95723534,-2.0335422,6.0,0.094419405,-0.06442592,-0.012420926
73.8304184563458,18.515026685781777,3.29,417.70328,17-16-10,-0.04398614,0.538394,-0.3790411,7.0,0.12068661,-0.0754215,-0.028303422
73.83038819767535,18.515030876733363,3.32,417.99536,17-16-10,0.17729193,0.06463909,-0.8093492,7.0,0.042495858,-0.09496918,0.0327831
73.83038819767535,18.515030876733363,3.32,417.99536,17-16-10,0.1469453,-0.25026798,-0.554682,7.0,0.015006924,-0.07786496,-0.031968616
73.83038819767535,18.515030876733363,3.32,417.99536,17-16-10,-0.085208684,0.22570133,0.8056778,8.0,0.06937393,-0.06442592,0.0187332
73.83038819767535,18.515030876733363,3.32,417.99536,17-16-10,-0.4378826,-0.23019123,0.37624064,11.0,-0.015536339,-0.08702794,0.015678875
73.83038819767535,18.515030876733363,3.32,417.99536,17-16-10,-0.3509227,-0.18981838,0.7346431,11.0,0.071206525,-0.027774006,-0.03807727
73.83038819767535,18.515030876733363,3.32,417.99536,17-16-10,-0.61581516,-1.3088694,-2.526131,9.0,-0.1425963,-0.07664323,0.05416338
73.83038819767535,18.515030876733363,3.32,417.99536,17-16-11,-0.94280636,-0.61188316,0.3510679,9.0,-0.32829934,-0.10291043,0.08959357
73.83038819767535,18.515030876733363,3.32,417.99536,17-16-11,0.93289906,1.9026117,-1.4600847,10.0,-0.2146784,-0.15483397,0.06576982
73.83038819767535,18.515030876733363,3.32,417.99536,17-16-11,-2.885531,0.47538376,-3.819377,11.0,-0.2678237,0.008267043,-0.05029457
73.83038819767535,18.515030876733363,3.32,417.99536,17-16-11,-3.4104574,1.5201998,-4.952339,12.0,-0.058907773,-0.02471968,-0.10221812
73.8303558435291,18.515034606680274,2.81,418.41568,17-16-11,-0.6094418,0.5775299,-0.7174599,12.0,-0.2006285,-0.04243477,0.0052941665
73.8303558435291,18.515034606680274,2.81,418.41568,17-16-11,-0.6828203,2.5368004,-2.2188132,13.0,-0.009427686,-0.123679854,-2.0362064E-4
73.8303558435291,18.515034606680274,2.81,418.41568,17-16-11,-0.37132865,0.9831314,-1.1956475,14.0,0.09319768,-0.0021176664,-0.069842264
73.8303558435291,18.515034606680274,2.81,418.41568,17-16-11,0.07960282,0.22029686,0.5586996,15.0,0.08525643,-0.004561127,-0.0234165
73.8303558435291,18.515034606680274,2.81,418.41568,17-16-11,0.5537021,0.8514404,0.33944988,14.0,0.05165884,0.07485136,-0.04296419
73.8303558435291,18.515034606680274,2.81,418.41568,17-16-11,0.32073915,-0.005753517,-0.8425741,13.0,-0.010038552,0.0039909864,-0.050905436
73.8303558435291,18.515034606680274,2.81,418.41568,17-16-12,-0.9360548,1.2299271,-0.65734816,13.0,0.014396058,0.017430022,-0.048461977
73.8303558435291,18.515034606680274,2.81,418.41568,17-16-12,0.25791532,0.13808823,0.22565973,15.0,-0.014314608,-0.04671083,-0.003257949
73.8303558435291,18.515034606680274,2.81,418.41568,17-16-12,0.4775164,0.7102089,0.7701564,14.0,0.024169903,-0.03999131,-0.001425352
73.8303558435291,18.515034606680274,2.81,418.41568,17-16-12,0.16747546,0.22823048,0.9969007,14.0,0.092586815,0.024760405,-0.03624467
73.83032625541091,18.515037498436868,3.25,418.88007,17-16-12,-0.20808716,-0.19148064,2.8986897,15.0,0.13779084,0.015597426,0.0187332
73.83032625541091,18.515037498436868,3.25,418.88007,17-16-12,-0.5262366,-0.76164246,1.0033768,14.0,0.010730867,0.03514511,-0.027692558
73.83032625541091,18.515037498436868,3.25,418.88007,17-16-12,0.1474778,-0.82595825,1.0388656,13.0,-8.755727E-4,0.021095213,-0.042353325
73.83032625541091,18.515037498436868,3.25,418.88007,17-16-12,0.3126257,-0.04932022,1.3704449,13.0,-0.097392276,0.025982136,-0.06312274
73.83032625541091,18.515037498436868,3.25,418.88007,17-16-12,0.69434685,0.57500744,-0.8302043,14.0,-0.24583253,-0.047321696,0.0022398382
73.83032625541091,18.515037498436868,3.25,418.88007,17-16-12,1.6105435,-0.12461853,0.171945,15.0,-0.06807075,-0.030217469,0.010791954
73.83032625541091,18.515037498436868,3.25,418.88007,17-16-13,1.8586587,0.40213013,0.92113316,16.0,-0.12182689,-0.05404121,0.10425433
73.83032625541091,18.515037498436868,3.25,418.88007,17-16-13,-0.0922472,1.0680523,-1.6372724,16.0,0.09380855,-0.032050062,0.05416338
73.83032625541091,18.515037498436868,3.25,418.88007,17-16-13,1.3037953,1.3297749,-1.2503295,16.0,0.020504711,-0.13223195,0.081041455
73.83032625541091,18.515037498436868,3.25,418.88007,17-16-13,-1.1405067,1.4567766,-1.6371887,15.0,0.16894497,-0.055262942,0.030950509
73.83028325624764,18.515045545063913,4.46,419.18527,17-16-13,-1.9831582,1.8806524,-3.1997223,12.0,0.34976107,0.03453425,-0.10405071
73.83028325624764,18.515045545063913,4.46,419.18527,17-16-13,-1.2650299,-0.5084076,-1.6877681,14.0,0.13779084,0.018651752,-0.04662938
73.83028325624764,18.515045545063913,4.46,419.18527,17-16-13,-1.7345992,0.70252705,5.2511444,17.0,0.3369329,0.0687427,0.06149377
73.83028325624764,18.515045545063913,4.46,419.18527,17-16-13,-3.1675956,-0.54642487,0.9801409,17.0,0.23919447,0.01132137,0.025452718
73.83028325624764,18.515045545063913,4.46,419.18527,17-16-13,-1.9442575,0.95813274,-0.17743397,17.0,0.3124983,0.010710504,-0.0796161
73.83028325624764,18.515045545063913,4.46,419.18527,17-16-13,-1.0106617,-1.0132275,1.4943174,17.0,0.2880637,-0.17560339,0.09936742
73.83028325624764,18.515045545063913,4.46,419.18527,17-16-14,0.19564064,-1.3607216,-0.12669396,17.0,0.13412565,-0.016167566,-0.046018515
73.83028325624764,18.515045545063913,4.46,419.18527,17-16-14,-3.2602189,-3.3610134,2.4995737,17.0,0.3583132,-0.11879293,0.0052941665
73.83028325624764,18.515045545063913,4.46,419.18527,17-16-14,-2.3891,-2.5308976,0.21122193,18.0,-0.0863967,-0.09496918,0.15190181
73.83028325624764,18.515045545063913,4.46,419.18527,17-16-14,1.5636107,-1.6703587,-7.162739,19.0,-0.588528,0.019873483,0.2581924
73.83022776804864,18.51506126113236,4.73,419.08694,17-16-14,2.0392866,2.4571018,-7.670261,17.0,-0.93672115,-0.074199766,0.08959357
73.83022776804864,18.51506126113236,4.73,419.08694,17-16-14,0.9352014,2.9622965,-5.2373633,16.0,-0.49384382,-0.065647654,-0.040520728
73.83022776804864,18.51506126113236,4.73,419.08694,17-16-14,0.5410811,1.4568844,-1.918435,17.0,-0.41198787,-0.026552275,-0.061290145
73.83022776804864,18.51506126113236,4.73,419.08694,17-16-14,2.3212364,2.7282534,-6.9967756,19.0,-0.46818748,0.25322402,-0.17918715
73.83022776804864,18.51506126113236,4.73,419.08694,17-16-14,1.4557655,0.8562679,-3.8880434,17.0,-0.3270776,0.14632258,-0.1657481
73.83022776804864,18.51506126113236,4.73,419.08694,17-16-14,-0.6246572,3.2374544,-3.5819936,16.0,-0.1584788,0.01132137,-0.16208291
73.83022776804864,18.51506126113236,4.73,419.08694,17-16-15,-2.0610216,1.5409002,-3.0497203,18.0,-0.21223494,0.013153965,-0.018529579
73.83022776804864,18.51506126113236,4.73,419.08694,17-16-15,-1.4566107,1.4465408,-0.69613636,19.0,-0.050355658,0.06324492,-0.019140445
73.83022776804864,18.51506126113236,4.73,419.08694,17-16-15,0.44045538,1.4256372,-0.91206276,19.0,-0.17008524,0.07607309,-0.027081693
73.83022776804864,18.51506126113236,4.73,419.08694,17-16-15,-0.46075845,0.15898037,-0.26065636,19.0,-0.101668335,0.07668395,-0.017918713
73.83017688989639,18.515068008564413,4.85,419.88718,17-16-15,0.6744582,0.02719307,-2.1546767,19.0,-0.105944395,0.010099638,0.029728778
73.83017688989639,18.515068008564413,4.85,419.88718,17-16-15,-0.15624562,0.15207005,0.27614284,19.0,-0.22017619,-0.077254094,0.07310021
73.83017688989639,18.515068008564413,4.85,419.88718,17-16-15,-0.37777942,0.659173,-0.40990758,18.0,-0.18291341,-0.025330545,0.06699155
73.83017688989639,18.515068008564413,4.85,419.88718,17-16-15,-1.7179546,-0.2468996,-0.0047454834,19.0,-0.18230255,-0.13650802,0.16778433
73.83017688989639,18.515068008564413,4.85,419.88718,17-16-15,-0.3821718,0.34986687,0.955944,19.0,-0.02958624,-0.10107783,0.08043059
73.83017688989639,18.515068008564413,4.85,419.88718,17-16-15,-2.1367972,0.8255291,0.68334234,17.0,-0.02958624,0.014986561,0.0010181069
73.83017688989639,18.515068008564413,4.85,419.88718,17-16-16,-2.8451145,1.8031225,-0.33433378,17.0,0.20437515,0.10234029,-0.082670435
73.83017688989639,18.515068008564413,4.85,419.88718,17-16-16,1.0085435,0.2924862,1.407319,17.0,0.20070995,0.056525398,-0.09122254
73.83017688989639,18.515068008564413,4.85,419.88718,17-16-16,-1.3486557,-1.6260195,1.013644,16.0,0.1384017,-0.07603236,-0.033190347
73.83017688989639,18.515068008564413,4.85,419.88718,17-16-16,-0.27393678,-0.14086914,-1.1537164,16.0,-0.0069842255,0.049195014,-0.04296419
73.83011519908905,18.515080329962075,5.77,420.5125,17-16-16,-1.2498662,0.61858654,-2.841547,17.0,-0.025310185,-0.025941411,0.017511472
73.83011519908905,18.515080329962075,5.77,420.5125,17-16-16,0.48787558,1.1070786,-3.8808286,21.0,-0.12488121,-0.039380446,0.032172233
73.83011519908905,18.515080329962075,5.77,420.5125,17-16-16,-0.43077335,0.6212883,1.9629883,20.0,0.0400524,-0.04243477,0.043167807
73.83011519908905,18.515080329962075,5.77,420.5125,17-16-16,-0.20383915,0.13537216,-2.534238,20.0,-0.1725287,0.09928597,-0.009366602
73.83011519908905,18.515080329962075,5.77,420.5125,17-16-16,1.0137355,0.32787323,1.8869834,21.0,0.13107131,0.054081935,0.046222135
73.83011519908905,18.515080329962075,5.77,420.5125,17-16-16,1.3100811,0.43088055,-0.101252556,15.0,0.16405804,0.0027692558,-0.061290145
73.83011519908905,18.515080329962075,5.77,420.5125,17-16-17,-0.45578212,0.15243435,-1.596015,13.0,0.21170554,-0.0015068008,-0.07106399
73.83011519908905,18.515080329962075,5.77,420.5125,17-16-17,1.5077357,-0.36106205,-1.1485512,13.0,0.12435181,-0.06320419,0.012624547
73.83011519908905,18.515080329962075,5.77,420.5125,17-16-17,1.0889406,0.6389656,-0.5059569,13.0,0.015617789,-0.015556702,-0.03380121
73.83011519908905,18.515080329962075,5.77,420.5125,17-16-17,0.32501578,0.37857246,1.0373194,14.0,0.080980375,0.008267043,-0.08694649
73.830043701455,18.515099985525012,8.05,420.80414,17-16-17,-2.496683,1.9661341,-0.92497134,16.0,0.013785193,0.14204654,-0.25615615
73.830043701455,18.515099985525012,8.05,420.80414,17-16-17,-1.8836565,0.6821947,1.0470257,20.0,0.054102298,0.14449,-0.23111069
73.830043701455,18.515099985525012,8.05,420.80414,17-16-17,-1.0735068,0.16769028,-1.0630422,22.0,0.049826242,0.049195014,-0.012420926
73.830043701455,18.515099985525012,8.05,420.80414,17-16-17,-1.9549596,0.18445587,-1.291708,24.0,-0.1041118,0.07668395,-0.024638232
73.830043701455,18.515099985525012,8.05,420.80414,17-16-17,-0.4519801,0.5581379,0.9315313,24.0,-0.1041118,0.06507751,0.07737626
73.830043701455,18.515099985525012,8.05,420.80414,17-16-17,-0.5406231,-0.101955414,0.40262628,23.0,-0.14503977,0.024760405,-0.021583905
73.830043701455,18.515099985525012,8.05,420.80414,17-16-18,-1.1647838,0.14817429,0.45861232,23.0,-0.08761843,0.018040888,-0.027692558
73.830043701455,18.515099985525012,8.05,420.80414,17-16-18,-0.055450376,-0.18226528,3.2979002,19.0,0.04127413,0.08584693,-0.12787446
73.830043701455,18.515099985525012,8.05,420.80414,17-16-18,-0.24859832,0.3526764,1.0951349,19.0,0.06021095,0.0864578,-0.08022697
73.830043701455,18.515099985525012,8.05,420.80414,17-16-18,1.3391329,0.63472366,2.942922,21.0,-0.28187358,-0.11268427,0.0627155
73.82995367981493,18.515124251134694,9.57,421.42957,17-16-18,0.85395235,-0.5340071,0.12999386,19.0,-0.24583253,-0.07603236,0.08043059
73.82995367981493,18.515124251134694,9.57,421.42957,17-16-18,-1.2486913,-0.21754456,0.25586832,19.0,0.03638721,0.028425597,0.011402819
73.82995367981493,18.515124251134694,9.57,421.42957,17-16-18,0.40116116,2.367566,-0.4173866,20.0,-0.0106494175,0.014986561,-0.013642658
73.82995367981493,18.515124251134694,9.57,421.42957,17-16-18,-0.46856678,0.9797535,0.14517683,18.0,0.1384017,0.096842505,-0.125431
73.82995367981493,18.515124251134694,9.57,421.42957,17-16-18,-0.96620476,0.32075977,-1.7595882,18.0,0.061432682,-0.0015068008,-0.0099774655
73.82995367981493,18.515124251134694,9.57,421.42957,17-16-18,0.9016487,-0.40463448,-0.20750353,20.0,0.044328455,-0.014945837,-2.0362064E-4
73.82995367981493,18.515124251134694,9.57,421.42957,17-16-19,0.09251345,0.61485004,-2.8501062,20.0,0.31616348,0.019262617,-0.044796783
73.82995367981493,18.515124251134694,9.57,421.42957,17-16-19,0.22163755,0.5057316,-6.508309,20.0,0.46643636,0.07729482,-0.09916379
73.82995367981493,18.515124251134694,9.57,421.42957,17-16-19,0.17739889,-0.53351307,-0.43252754,21.0,-0.13343333,0.067520976,-0.08205956
73.82995367981493,18.515124251134694,9.57,421.42957,17-16-19,0.88795185,-0.43445587,5.231684,21.0,0.16405804,-0.0754215,0.012624547
73.8298486545682,18.515144577249885,10.36,423.27164,17-16-19,1.57996,0.3724079,0.7898203,22.0,-0.071125075,-0.043656502,0.04255695
73.8298486545682,18.515144577249885,10.36,423.27164,17-16-19,1.1637957,2.1851683,-1.463544,21.0,0.25874215,-0.005171993,0.010181088
73.8298486545682,18.515144577249885,10.36,423.27164,17-16-19,-0.4218945,1.3232069,-0.45212853,21.0,0.118854016,0.024149539,-0.056403223
73.8298486545682,18.515144577249885,10.36,423.27164,17-16-19,0.15453911,-1.0056973,0.4142428,21.0,0.17627536,-0.061371595,-0.001425352
73.8298486545682,18.515144577249885,10.36,423.27164,17-16-19,1.5984354,-0.9711056,1.1819501,21.0,-0.0027081687,-0.074199766,0.07432194
73.8298486545682,18.515144577249885,10.36,423.27164,17-16-19,0.75906014,-1.4722929,1.8595023,20.0,0.09075422,-0.025330545,-0.1095485
73.8298486545682,18.515144577249885,10.36,423.27164,17-16-20,-0.9659619,-0.14198971,0.34624386,21.0,-0.0106494175,-0.036936983,0.04438954
73.8298486545682,18.515144577249885,10.36,423.27164,17-16-20,-1.0692028,0.15000916,-0.3538134,20.0,-0.16642006,-0.0076154536,0.009570222
73.8298486545682,18.515144577249885,10.36,423.27164,17-16-20,1.5380504,0.4124527,2.117899,22.0,-0.12610294,-0.02471968,0.08898271
73.8298486545682,18.515144577249885,10.36,423.27164,17-16-20,-0.77914286,0.6446552,2.3753717,22.0,0.11518883,0.011932234,0.0071267597
73.82974362932146,18.515165532007813,10.44,425.3428,17-16-20,-2.2457242,1.6400423,-2.0308619,23.0,-0.117550835,-0.12978849,0.18611029
73.82974362932146,18.515165532007813,10.44,425.3428,17-16-20,-0.7406725,-0.3509369,-2.6050756,23.0,-0.15237015,-0.09252572,0.09142617
73.82974362932146,18.515165532007813,10.44,425.3428,17-16-20,1.9602073,-0.17395878,1.8181794,21.0,-0.07356854,-0.054652076,0.06393723
73.82974362932146,18.515165532007813,10.44,425.3428,17-16-20,2.26925,-0.16667747,1.3729134,19.0,-0.03997095,-0.012502376,-0.005090542
73.82974362932146,18.515165532007813,10.44,425.3428,17-16-20,0.6599649,0.3831234,-0.9122344,17.0,-0.13465506,0.033923384,0.0627155
73.82974362932146,18.515165532007813,10.44,425.3428,17-16-20,-1.1020901,0.9055004,-0.7610408,17.0,0.054102298,-0.010058914,0.040724352
73.82974362932146,18.515165532007813,10.44,425.3428,17-16-21,0.9754376,1.130311,-2.602688,18.0,0.095641136,0.03942117,-0.0020362176
73.82974362932146,18.515165532007813,10.44,425.3428,17-16-21,-1.2284999,0.17630386,1.9099495,19.0,-0.09250536,0.07790568,-0.111991964
73.82974362932146,18.515165532007813,10.44,425.3428,17-16-21,0.06495795,-1.3138695,1.3980194,21.0,0.16344719,0.044308092,-0.0234165
73.82974362932146,18.515165532007813,10.44,425.3428,17-16-21,0.2131652,-0.5695791,1.1594656,20.0,0.05898922,0.0705753,-0.10832677
73.8296380173415,18.515187995508313,10.44,427.57812,17-16-21,-0.9224156,-0.31579018,0.6476617,19.0,-0.071125075,0.14204654,-0.15780686
73.8296380173415,18.515187995508313,10.44,427.57812,17-16-21,0.54869306,-0.3260126,3.2716506,21.0,0.076704316,0.06507751,-0.043575056
73.8296380173415,18.515187995508313,10.44,427.57812,17-16-21,-0.64997816,0.20923138,-0.951651,21.0,0.032722015,0.027203865,-0.029525153
73.8296380173415,18.515187995508313,10.44,427.57812,17-16-21,0.478333,1.6489935,1.4601085,22.0,-0.14198545,0.112725,0.04988733
