Longitude,Latitude,Speed,Distance,Time,Acc X,Acc Y,Acc Z,Heading,gyro_x,gyro_y,gyro_z
73.82266058586538,18.501627040095627,0.0,0.0,18-45-12,-0.27197835,0.23969746,-0.87013334,352.0,0.022825997,-0.035572723,0.012482002
73.82266058586538,18.501627040095627,0.0,0.0,18-45-12,-0.20324235,0.33035755,0.8225006,352.0,-0.024821494,0.045672357,-0.016228663
73.82266058586538,18.501627040095627,0.0,0.0,18-45-13,-0.05242957,0.28300953,-0.3485884,352.0,-0.07124725,0.027346399,-0.015617799
73.82266058586538,18.501627040095627,0.0,0.0,18-45-13,0.046597213,0.18121529,-1.068336,352.0,0.028323784,-0.009305514,-0.015006933
73.82266058586538,18.501627040095627,0.0,0.0,18-45-13,0.03863132,0.3413,0.36510175,352.0,0.022215132,-0.015414166,0.014314599
73.82266058586538,18.501627040095627,0.0,0.0,18-45-13,-0.33678457,0.41690254,0.15014556,352.0,-0.005884669,0.0077987127,-0.008898281
73.82266058586538,18.501627040095627,0.0,0.0,18-45-13,0.4041241,0.017564774,-0.34112054,352.0,-0.005884669,0.02490294,-0.033943757
73.82266058586538,18.501627040095627,0.0,0.0,18-45-13,0.22304127,0.07061386,-0.8206185,352.0,-0.03276274,-0.004418593,-0.002178762
73.82266058586538,18.501627040095627,0.0,0.0,18-45-13,-0.05778408,0.12726879,0.69255495,352.0,0.07413868,-0.022133686,-0.0052330904
73.82266058586538,18.501627040095627,0.0,0.0,18-45-13,0.0023132563,9.908676E-4,-0.16929156,352.0,-0.04314745,0.0053552515,-0.012563471
73.82266041822731,18.50162720773369,0.0,0.025645396,18-45-13,0.35508624,0.03437233,-0.5406804,352.0,0.043595415,-0.013581571,0.0100385435
73.82266041822731,18.50162720773369,0.0,0.025645396,18-45-13,0.07500526,0.238348,0.107052855,352.0,0.037486766,-0.01235984,0.013703734
73.82266041822731,18.50162720773369,0.0,0.025645396,18-45-14,-0.27529198,0.24845695,0.067278475,352.0,-0.01749111,0.0077987127,-0.008898281
73.82266041822731,18.50162720773369,0.0,0.025645396,18-45-14,0.16203737,0.013084412,0.018024325,352.0,-0.009549861,0.015129095,-0.022337316
73.82266041822731,18.50162720773369,0.0,0.025645396,18-45-14,0.13435644,0.1843195,-0.43283728,352.0,0.03931936,-0.020301089,0.008816812
73.82266041822731,18.50162720773369,0.0,0.025645396,18-45-14,-0.15877105,0.18526077,0.077168,352.0,0.052758396,-0.0050294576,-0.004011359
73.82266041822731,18.50162720773369,0.0,0.025645396,18-45-14,0.0065425634,0.11241531,-0.20218322,352.0,-0.026654087,0.012074769,-0.02416991
73.82266041822731,18.50162720773369,0.0,0.025645396,18-45-14,0.3164058,0.12996864,-0.5552976,352.0,0.013663019,-0.009916379,-0.004011359
73.82266041822731,18.50162720773369,0.0,0.025645396,18-45-14,-0.2577981,0.26292706,0.6211258,352.0,-0.020545434,-1.4253566E-4,-0.02050472
73.82266041822731,18.50162720773369,0.0,0.025645396,18-45-14,-0.07086189,-0.021248817,-0.082314104,352.0,-0.013215051,0.032233324,-0.026613371
73.82266041822731,18.50162720773369,0.0,0.025645396,18-45-14,0.32688716,0.11992741,-0.27168462,352.0,-0.007106398,-0.018468492,0.017368924
73.82266041822731,18.50162720773369,0.0,0.025645396,18-45-14,0.44082832,0.16170883,0.5945575,352.0,0.00205658,0.012685634,-0.0015678965
73.82266041822731,18.50162720773369,0.0,0.025645396,18-45-15,0.27360535,0.15849018,-0.5276613,352.0,-0.013825917,0.010853039,-0.03088943
73.82266041822731,18.50162720773369,0.0,0.025645396,18-45-15,-0.17204991,0.20827103,-0.42420974,352.0,0.013663019,0.0029117905,0.007595081
73.82266041822731,18.50162720773369,0.0,0.025645396,18-45-15,-0.5743787,0.26403046,0.6869137,352.0,-0.018101975,0.010853039,-0.018672124
73.82266041822731,18.50162720773369,0.0,0.025645396,18-45-15,0.07624036,0.10143185,-0.2275643,352.0,-0.02909755,0.042007167,-0.016839528
73.82266041822731,18.50162720773369,0.0,0.025645396,18-45-15,-0.21072336,0.59817886,-0.82514215,352.0,0.043595415,0.010853039,0.0063733496
73.82266041822731,18.50162720773369,0.0,0.025645396,18-45-15,0.6768036,0.2139864,0.07894787,352.0,0.0826908,0.002300925,0.018590655
73.82266041822731,18.50162720773369,0.0,0.025645396,18-45-15,0.5307517,0.0948267,-0.6398855,352.0,0.027712919,-0.022133686,-0.022337316
73.82266041822731,18.50162720773369,0.0,0.025645396,18-45-15,-0.2258394,0.12327957,0.49321723,352.0,0.042373687,-0.04840089,0.030197095
73.82266041822731,18.50162720773369,0.0,0.025645396,18-45-15,0.134936,0.12685013,0.50331545,352.0,-0.0064955344,0.0041335206,-0.018672124
73.82266041822731,18.50162720773369,0.0,0.025645396,18-45-15,0.42511898,0.13655758,-0.29141337,352.0,-0.021767166,0.0132965,-0.022337316
73.82266041822731,18.50162720773369,0.0,0.025645396,18-45-16,-1.0711128,0.30090427,-0.09672025,352.0,-0.038871393,-0.03190753,0.005762484
73.82266041822731,18.50162720773369,0.0,0.025645396,18-45-16,-0.19969898,-0.031362534,0.22594693,352.0,-0.14699453,0.025513805,8.7556243E-4
73.82266041822731,18.50162720773369,0.0,0.025645396,18-45-16,0.33979577,0.3715105,-0.35917994,352.0,-0.03154101,-0.0019751312,-0.0058439523
73.82266041822731,18.50162720773369,0.0,0.025645396,18-45-16,-0.35396832,0.3025036,0.2705138,352.0,-0.029708415,0.015129095,-0.018672124
73.82266041822731,18.50162720773369,0.0,0.025645396,18-45-16,0.1084522,0.21885204,-0.23109773,352.0,-0.04559091,0.010853039,-0.022948181
73.82266041822731,18.50162720773369,0.0,0.025645396,18-45-16,0.17158845,0.07776451,-0.6884482,352.0,0.035043303,-0.016025033,-0.008287415
73.82266041822731,18.50162720773369,0.0,0.025645396,18-45-16,-0.16757455,0.18741989,0.17159691,352.0,-0.03764966,0.024292074,-0.040052406
73.82266041822731,18.50162720773369,0.0,0.025645396,18-45-16,-0.026151806,-0.005604744,0.24787003,352.0,0.02893465,-0.016635899,0.0063733496
73.82266041822731,18.50162720773369,0.0,0.025645396,18-45-16,0.017095804,0.02108097,0.25363106,352.0,0.038097627,-0.0019751312,-0.015006933
73.82266041822731,18.50162720773369,0.0,0.025645396,18-45-16,0.56414163,0.04405403,-0.19816926,352.0,-0.032151874,0.0047443863,-0.01928299
73.82266041822731,18.50162720773369,0.0,0.025645396,18-45-17,-0.20705491,0.056261063,0.42207333,352.0,0.049704067,0.0077987127,-0.0046222247
73.82266041822731,18.50162720773369,0.0,0.025645396,18-45-17,0.4240341,-0.009034157,-0.5297996,352.0,-0.066360325,0.031011593,-0.02416991
73.82266041822731,18.50162720773369,0.0,0.025645396,18-45-17,-0.14253217,0.20017433,0.47660106,352.0,0.0069435015,-0.014192437,0.014314599
73.82266041822731,18.50162720773369,0.0,0.025645396,18-45-17,0.15201777,0.06414032,-0.006103009,352.0,-0.005884669,0.011463904,-0.018672124
73.82266041822731,18.50162720773369,0.0,0.025645396,18-45-17,-0.07214461,0.2597885,-0.65895784,352.0,-0.014436782,-0.013581571,0.0063733496
73.82266041822731,18.50162720773369,0.0,0.025645396,18-45-17,-0.3665645,-0.019086838,0.88060737,352.0,0.058256183,-0.0050294576,0.01797979
73.82266041822731,18.50162720773369,0.0,0.025645396,18-45-17,0.9322674,-0.10734749,1.6128759,352.0,0.014273885,0.021237748,0.062572956
73.82266041822731,18.50162720773369,0.0,0.025645396,18-45-17,0.80154526,-0.100414276,-0.54091537,352.0,0.031378113,0.06338745,-0.08464557
73.82266041822731,18.50162720773369,0.0,0.025645396,18-45-17,-0.7204668,0.6477804,-0.24660689,352.0,-0.05169956,-0.036183584,0.07784459
73.82266041822731,18.50162720773369,0.0,0.025645396,18-45-17,-0.99496704,0.66358757,-0.5512918,352.0,0.022215132,-0.08260934,0.06562728
73.82266041822731,18.50162720773369,0.0,0.025645396,18-45-18,-0.7137214,0.44188213,0.56419456,352.0,-0.04803437,0.032844186,-0.023559047
73.82266041822731,18.50162720773369,0.0,0.025645396,18-45-18,0.44412705,0.43420792,-0.5894711,352.0,0.042373687,-0.0050294576,-0.0046222247
73.82266041822731,18.50162720773369,0.0,0.025645396,18-45-18,0.28354985,0.10954094,-0.19383973,352.0,8.3484873E-4,-0.00869465,0.003319025
73.82266041822731,18.50162720773369,0.0,0.025645396,18-45-18,-0.107734695,0.22923279,0.0740414,352.0,-0.016880244,0.009631308,-0.024780776
73.82266041822731,18.50162720773369,0.0,0.025645396,18-45-18,0.21658933,0.31772327,-0.71684253,352.0,-0.042536583,0.010853039,-0.01928299
73.82266041822731,18.50162720773369,0.0,0.025645396,18-45-18,-0.17214814,0.16348267,0.78550917,352.0,0.028323784,-0.004418593,8.7556243E-4
73.82266041822731,18.50162720773369,0.0,0.025645396,18-45-18,-0.32991117,0.19012356,0.09259704,352.0,0.010608693,-0.008083784,0.013703734
73.82266041822731,18.50162720773369,0.0,0.025645396,18-45-18,0.3412673,0.2861042,0.129056,352.0,-9.977464E-4,-0.0068620536,0.015536327
73.82266041822731,18.50162720773369,0.0,0.025645396,18-45-18,0.09173487,0.05429077,0.14849076,352.0,0.019771673,0.0053552515,-0.012563471
73.82266041822731,18.50162720773369,0.0,0.025645396,18-45-18,0.13699204,0.06808758,-0.066447854,352.0,0.03565417,-0.014192437,-0.0046222247
73.82266041822731,18.50162720773369,0.0,0.025645396,18-45-19,0.13699204,0.06808758,-0.066447854,352.0,0.03565417,-0.014192437,-0.0046222247
73.82266041822731,18.50162720773369,0.0,0.025645396,18-45-19,0.3568191,0.124835014,-0.25108314,352.0,0.016717345,-0.0013642665,-0.016228663
73.82266041822731,18.50162720773369,0.0,0.025645396,18-45-19,-0.2541773,0.23522854,0.324298,352.0,-0.003441208,0.006576982,-0.015006933
73.82266041822731,18.50162720773369,0.0,0.025645396,18-45-19,-0.46745387,0.16340256,0.35521454,352.0,-0.005273803,0.017572556,-0.0058439523
73.82266041822731,18.50162720773369,0.0,0.025645396,18-45-19,0.3595304,-0.041288376,-0.3382874,352.0,8.3484873E-4,-0.01235984,0.005762484
73.82266041822731,18.50162720773369,0.0,0.025645396,18-45-19,-0.06307605,-0.104242325,1.0258079,352.0,-0.10728829,0.006576982,0.005151622
73.82266041822731,18.50162720773369,0.0,0.025645396,18-45-19,0.18631634,0.11602306,-0.08955577,352.0,-0.023599762,-0.015414166,0.0100385435
73.82266041822731,18.50162720773369,0.0,0.025645396,18-45-19,-0.37698448,0.2602806,-0.6033546,352.0,-0.01077159,0.0035226557,-0.01928299
73.82266041822731,18.50162720773369,0.0,0.025645396,18-45-19,-0.15919337,0.08427811,-0.010029227,352.0,-0.018101975,-0.006251188,0.012482002
73.82266041822731,18.50162720773369,0.0,0.025645396,18-45-19,-0.36956045,0.30819702,0.6529542,352.0,0.046649743,-0.01235984,0.007595081
73.82266041822731,18.50162720773369,0.0,0.025645396,18-45-20,-0.23361762,0.14146805,-0.36791268,352.0,0.048482336,0.05300274,-0.048604522
73.82266041822731,18.50162720773369,0.0,0.025645396,18-45-20,-0.55855364,0.1398859,0.07427579,352.0,0.02893465,0.026124671,0.0020972937
73.82266041822731,18.50162720773369,0.0,0.025645396,18-45-20,-0.6509248,-0.10115242,0.41445816,352.0,0.0063326363,0.13424781,-0.029056834
73.82266041822731,18.50162720773369,0.0,0.025645396,18-45-20,-1.3632607,0.006258011,0.21035366,352.0,0.05703445,0.10736975,-0.08892163
73.82266041822731,18.50162720773369,0.0,0.025645396,18-45-20,0.31263417,-0.4149599,0.46739656,352.0,-0.008938995,0.08598947,-0.0999172
73.82266041822731,18.50162720773369,0.0,0.025645396,18-45-20,0.27582067,-0.21439743,0.80010295,352.0,-0.01077159,0.019405153,-0.022948181
73.82266041822731,18.50162720773369,0.0,0.025645396,18-45-20,0.3026143,-0.24436665,0.539571,352.0,-0.046201777,0.022459477,-0.019893855
73.82266041822731,18.50162720773369,0.0,0.025645396,18-45-20,0.30216074,-0.11755085,0.28314126,352.0,-0.059029948,0.002300925,-0.0015678965
73.82266041822731,18.50162720773369,0.0,0.025645396,18-45-20,-0.14619711,-0.042503357,0.9805478,352.0,-0.07979936,0.018183421,-0.0070656836
73.82266041822731,18.50162720773369,0.0,0.025645396,18-45-20,0.2809291,0.015197754,-0.18147418,352.0,-0.020545434,-0.0050294576,0.016758058
73.82266041822731,18.50162720773369,0.0,0.025645396,18-45-21,-0.19883156,0.22792149,0.18340835,352.0,-0.008938995,0.012685634,-0.021115584
73.82266041822731,18.50162720773369,0.0,0.025645396,18-45-21,0.0782485,0.221241,0.030008197,352.0,-0.042536583,-0.0031968616,-0.011341739
73.82266041822731,18.50162720773369,0.0,0.025645396,18-45-21,-0.08359802,0.33659172,-0.05027941,352.0,0.033210706,-0.00869465,0.007595081
73.82266041822731,18.50162720773369,0.0,0.025645396,18-45-21,0.3646794,0.09610367,-0.44484514,352.0,0.005721771,-1.4253566E-4,-0.025391642
73.82266041822731,18.50162720773369,0.0,0.025645396,18-45-21,-0.18931845,0.24417782,-0.05793488,352.0,-0.0028303424,-0.010527245,-0.004011359
73.82266041822731,18.50162720773369,0.0,0.025645396,18-45-21,-0.23144351,0.35111332,-0.3582178,352.0,0.025880326,0.002300925,-0.025391642
73.82266041822731,18.50162720773369,0.0,0.025645396,18-45-21,0.18942106,0.25147152,-0.12838787,352.0,-0.024210628,-0.008083784,-0.0076765493
73.82266041822731,18.50162720773369,0.0,0.025645396,18-45-21,-0.052522212,0.21776867,0.6342168,352.0,-0.0028303424,-0.006251188,-0.006454818
73.82266041822731,18.50162720773369,0.0,0.025645396,18-45-21,-0.052162737,0.14176464,-0.46046588,352.0,0.030767247,-0.004418593,-0.017450394
73.82266041822731,18.50162720773369,0.0,0.025645396,18-45-21,0.15401277,0.251894,0.21863107,352.0,0.009386962,-0.0129707055,0.014925465
73.82266041822731,18.50162720773369,0.0,0.025645396,18-45-22,-0.061702117,-0.0820837,0.24741408,352.0,-0.009549861,0.037731107,-0.026613371
73.82266041822731,18.50162720773369,0.0,0.025645396,18-45-22,0.09175122,0.038933754,-0.36663026,352.0,0.0014457144,-0.015414166,0.01920152
73.82266041822731,18.50162720773369,0.0,0.025645396,18-45-22,-0.095832676,0.5293913,0.18845396,352.0,-0.053532157,0.023070343,-0.018061258
73.82266041822731,18.50162720773369,0.0,0.025645396,18-45-22,0.3258742,0.6400757,-1.4571781,352.0,0.024047729,-0.036183584,0.015536327
73.82266041822731,18.50162720773369,0.0,0.025645396,18-45-22,-0.6670277,0.6866331,-0.023338795,352.0,-0.01749111,0.0053552515,-0.03088943
73.82266041822731,18.50162720773369,0.0,0.025645396,18-45-22,0.5249585,0.10831928,-1.5819933,352.0,0.09368637,0.013907365,-0.026613371
73.82266041822731,18.50162720773369,0.0,0.025645396,18-45-22,0.40285334,0.15131283,0.25486267,352.0,0.09246464,0.032233324,2.6469678E-4
73.82266041822731,18.50162720773369,0.0,0.025645396,18-45-22,0.74897194,0.017593384,1.5386312,352.0,-0.029708415,-0.0025859969,0.022866715
73.82266041822731,18.50162720773369,0.0,0.025645396,18-45-22,0.16085109,-0.6588726,-1.5731783,352.0,0.06069964,-0.036183584,0.014314599
73.82266041822731,18.50162720773369,0.0,0.025645396,18-45-22,0.16904023,0.23344517,0.54582775,352.0,-0.05719735,-0.011748976,0.020423252
73.82266041822731,18.50162720773369,0.0,0.025645396,18-45-23,-0.24258274,0.071718216,-0.9312614,352.0,0.004500041,0.0035226557,8.7556243E-4
73.82266041822731,18.50162720773369,0.0,0.025645396,18-45-23,0.013050318,0.3137436,-0.15663779,352.0,-0.028486684,0.0077987127,-0.004011359
73.82266041822731,18.50162720773369,0.0,0.025645396,18-45-23,0.12100217,0.22965813,-0.89265084,352.0,0.04054109,0.029789861,0.0039298907
73.82266041822731,18.50162720773369,0.0,0.025645396,18-45-23,-0.10876198,0.44593334,-0.61141396,352.0,0.039930224,0.011463904,-0.013174336
73.82266041822731,18.50162720773369,0.0,0.025645396,18-45-23,-0.18349749,0.25953007,-0.5092845,352.0,0.067419164,-0.0013642665,-0.018672124
73.82266041822731,18.50162720773369,0.0,0.025645396,18-45-23,-0.091900006,0.20454788,-0.18025422,352.0,0.02526946,-0.0068620536,-0.026002508
73.82266041822731,18.50162720773369,0.0,0.025645396,18-45-23,0.18692282,0.111504555,-0.6077969,352.0,0.005110906,0.020016018,0.0020972937
73.82265312597156,18.50162699818611,0.56,0.78778964,18-45-23,0.19503829,0.19301128,0.39159638,352.0,0.0069435015,-0.04351397,-0.0107308775
73.82265312597156,18.50162699818611,0.56,0.78778964,18-45-23,0.12726271,0.37187195,0.53231996,352.0,-0.013215051,-0.017857626,-0.016839528
73.82265312597156,18.50162699818611,0.56,0.78778964,18-45-23,-0.029795438,0.34466934,-0.22354758,352.0,-0.0046629375,-0.02518801,0.0045407563
73.82265312597156,18.50162699818611,0.56,0.78778964,18-45-24,-0.14440234,0.20795822,-0.46251643,352.0,-0.025432356,-0.028853204,0.02225585
73.82265312597156,18.50162699818611,0.56,0.78778964,18-45-24,0.19335225,0.21992874,-0.37898064,352.0,-0.035206202,-0.04962262,0.021644983
73.82265312597156,18.50162699818611,0.56,0.78778964,18-45-24,0.21641162,0.23462105,0.022160888,351.0,-0.008938995,-0.056953,-0.010120012
73.82265312597156,18.50162699818611,0.56,0.78778964,18-45-24,-0.0015156865,0.68066025,0.22256196,350.0,0.005721771,-0.017246764,-0.0027896278
73.82265312597156,18.50162699818611,0.56,0.78778964,18-45-24,0.3301964,0.34769344,-0.047052264,350.0,-0.022378031,-0.04595743,0.007595081
73.82265312597156,18.50162699818611,0.56,0.78778964,18-45-24,-0.44812953,0.19079208,-1.0215987,350.0,0.008776098,-0.054509543,-0.011952605
73.82265312597156,18.50162699818611,0.56,0.78778964,18-45-24,-0.19711715,0.48352623,-1.2946919,350.0,-0.025432356,-0.06794857,-0.010120012
73.82263912819326,18.50162439979613,1.78,2.2847304,18-45-24,-0.25229865,0.24358273,-1.4777285,350.0,0.0826908,-0.03801618,-0.03088943
73.82263912819326,18.50162439979613,1.78,2.2847304,18-45-24,-0.47647917,0.53101254,-0.80915725,350.0,0.064364836,-0.04595743,-0.035165485
73.82263912819326,18.50162439979613,1.78,2.2847304,18-45-24,-0.4545058,-0.00940609,-1.9596891,351.0,0.014884749,-0.061839927,-0.013785202
73.82263912819326,18.50162439979613,1.78,2.2847304,18-45-25,-0.036133975,-0.06041622,-3.4189224E-4,351.0,-0.18914424,-0.09177232,0.024088446
73.82263912819326,18.50162439979613,1.78,2.2847304,18-45-25,0.4476903,-0.18676949,-0.6451398,351.0,-0.098125316,-0.060618196,0.024088446
73.82263912819326,18.50162439979613,1.78,2.2847304,18-45-25,-0.4989204,0.22442245,-1.7361054,350.0,0.037486766,-0.038627047,-0.03944154
73.82263912819326,18.50162439979613,1.78,2.2847304,18-45-25,0.3033736,0.34596157,-0.5284604,350.0,-0.07613417,-0.040459644,-0.012563471
73.82263912819326,18.50162439979613,1.78,2.2847304,18-45-25,0.32695323,0.7499151,-0.054130793,351.0,-0.013825917,-0.020911954,-0.013174336
73.82263912819326,18.50162439979613,1.78,2.2847304,18-45-25,0.10490301,0.39112854,0.17512798,351.0,0.020382537,-0.018468492,-0.012563471
73.82263912819326,18.50162439979613,1.78,2.2847304,18-45-25,-0.5660384,0.2908249,-1.1372223,352.0,0.08574512,-0.0447357,-0.027835103
73.8226164970547,18.5016232682392,2.55,4.6745257,18-45-25,-0.15551996,0.25801182,-0.15578377,353.0,0.03259984,-0.054509543,-0.053491443
73.8226164970547,18.5016232682392,2.55,4.6745257,18-45-25,0.2256997,0.7982063,-0.40106273,353.0,0.010608693,-0.032518394,-0.018672124
73.8226164970547,18.5016232682392,2.55,4.6745257,18-45-25,-0.17132396,0.038733482,-0.23076582,354.0,0.02526946,-0.02518801,-0.033943757
73.8226164970547,18.5016232682392,2.55,4.6745257,18-45-26,-0.19322598,0.093094826,-0.012781143,355.0,0.008165232,0.011463904,-0.006454818
73.8226164970547,18.5016232682392,2.55,4.6745257,18-45-26,-0.83395576,0.07973099,-0.20519054,356.0,-0.015047648,0.10431542,-0.016839528
73.8226164970547,18.5016232682392,2.55,4.6745257,18-45-26,0.0018909313,0.21183395,-0.18548048,357.0,-0.041925717,0.0872112,-0.0027896278
73.8226164970547,18.5016232682392,2.55,4.6745257,18-45-26,-0.34370852,0.1997137,-0.48462248,357.0,-0.027264953,0.09759591,-0.010120012
73.8226164970547,18.5016232682392,2.55,4.6745257,18-45-26,-0.017181434,0.04329014,0.860577,357.0,-0.03642793,0.11164581,0.0027081594
73.8226164970547,18.5016232682392,2.55,4.6745257,18-45-26,-0.44875586,0.30867195,-0.92745507,357.0,0.08391252,0.06399832,-0.0107308775
73.8226164970547,18.5016232682392,2.55,4.6745257,18-45-26,-0.29195845,0.121528625,-0.82972884,357.0,0.022215132,0.04689409,0.0014864281
73.82258640602231,18.501623435877264,3.73,7.8436546,18-45-26,0.13370998,0.1582861,2.2680945,357.0,0.010608693,0.08171341,-0.002178762
73.82258640602231,18.501623435877264,3.73,7.8436546,18-45-26,0.14081308,-0.20040798,0.2126216,357.0,0.052758396,0.05850053,-0.04249587
73.82258640602231,18.501623435877264,3.73,7.8436546,18-45-26,0.2218623,-0.9287472,0.30937928,357.0,-0.035206202,0.10370456,-0.02172645
73.82258640602231,18.501623435877264,3.73,7.8436546,18-45-27,0.37208706,-0.06943703,1.0366168,357.0,-0.07674503,0.09209812,0.006984215
73.82258640602231,18.501623435877264,3.73,7.8436546,18-45-27,0.042916186,-0.40421867,0.19910745,357.0,-0.12805772,0.105537154,-0.0015678965
73.82258640602231,18.501623435877264,3.73,7.8436546,18-45-27,-0.5958105,0.6784439,-0.093137115,356.0,-0.06819292,0.089043796,-0.002178762
73.82258640602231,18.501623435877264,3.73,7.8436546,18-45-27,-0.26967326,1.0340424,0.150695,356.0,-0.082242824,0.03650938,-0.080980375
73.82258640602231,18.501623435877264,3.73,7.8436546,18-45-27,0.2545926,0.76164055,0.16357026,356.0,-0.013825917,0.049948413,0.031418826
73.82258640602231,18.501623435877264,3.73,7.8436546,18-45-27,-0.29838324,1.201724,0.6190338,356.0,-0.04803437,0.053613603,0.026531901
73.82258640602231,18.501623435877264,3.73,7.8436546,18-45-27,-0.110662565,0.5659399,0.35068625,356.0,0.018549941,0.08049168,-0.011341739
73.82255304604769,18.501623896881938,3.59,11.361694,18-45-27,1.2247245,-0.2727766,-1.4845284,356.0,0.041151956,0.07804822,0.03386229
73.82255304604769,18.501623896881938,3.59,11.361694,18-45-27,0.6409043,0.068237305,-2.0281882,355.0,0.18165097,0.1256957,0.024088446
73.82255304604769,18.501623896881938,3.59,11.361694,18-45-27,0.7670377,0.45029736,0.65609485,355.0,-0.01077159,0.089043796,0.007595081
73.82255304604769,18.501623896881938,3.59,11.361694,18-45-28,0.10014585,-0.5067797,-1.2796113,354.0,-0.01749111,0.16906713,-0.06693048
73.82255304604769,18.501623896881938,3.59,11.361694,18-45-28,0.69008076,0.12434292,-0.35098732,356.0,-0.008938995,0.037731107,0.04546873
73.82255304604769,18.501623896881938,3.59,11.361694,18-45-28,-0.28534955,0.35297298,2.6321793,355.0,-0.13477723,0.21304943,-0.046771925
73.82255304604769,18.501623896881938,3.59,11.361694,18-45-28,2.6572514,0.2064457,-0.7330127,356.0,-0.0492561,0.15074117,0.06868161
73.82255304604769,18.501623896881938,3.59,11.361694,18-45-28,0.37663406,1.2374697,-1.0493343,356.0,0.1828727,0.037120245,0.040581804
73.82255304604769,18.501623896881938,3.59,11.361694,18-45-28,-0.91097295,0.46972847,-2.7874768,355.0,0.12911655,0.061554853,-0.11824316
73.82255304604769,18.501623896881938,3.59,11.361694,18-45-28,-1.2305194,0.811574,0.061510444,351.0,0.0063326363,0.06033312,-0.09869547
73.82251993753016,18.501615640707314,3.6599998,14.906174,18-45-28,0.9009464,-1.0314751,-1.3722352,352.0,0.00205658,0.018183421,-0.03211116
73.82251993753016,18.501615640707314,3.6599998,14.906174,18-45-28,0.75300395,0.015275955,3.0466552,352.0,-0.13538809,-0.014192437,0.037527476
73.82251993753016,18.501615640707314,3.6599998,14.906174,18-45-28,-1.1676248,-0.75450706,-1.2778082,353.0,-0.10789916,0.0132965,-0.018061258
73.82251993753016,18.501615640707314,3.6599998,14.906174,18-45-29,-1.7441503,0.54227924,-0.6513643,354.0,-0.0773559,0.099428505,-0.03944154
73.82251993753016,18.501615640707314,3.6599998,14.906174,18-45-29,-0.43428195,0.7659216,-0.29394615,354.0,0.09124291,0.12019792,-0.06876308
73.82251993753016,18.501615640707314,3.6599998,14.906174,18-45-29,0.4609347,1.3034897,0.9793261,352.0,0.07352781,0.14096732,-0.12251921
73.82251993753016,18.501615640707314,3.6599998,14.906174,18-45-29,-0.0903738,-0.23150635,0.63785714,353.0,0.11995357,0.09576331,-0.12374094
73.82251993753016,18.501615640707314,3.6599998,14.906174,18-45-29,-0.88327193,0.6551466,0.12757134,353.0,0.039930224,0.0053552515,-0.07853692
73.82251993753016,18.501615640707314,3.6599998,14.906174,18-45-29,-0.70495564,0.3130064,-0.45026016,353.0,-0.109731756,0.05911139,-0.03211116
73.82251993753016,18.501615640707314,3.6599998,14.906174,18-45-29,0.20419395,1.0137014,2.2625241,355.0,-0.17631607,-0.086274534,0.024699312
73.82248188368976,18.501607133075595,4.1,18.999422,18-45-29,-0.54488486,1.4994917,-0.21661854,355.0,-0.32292372,0.010242173,0.08639671
73.82248188368976,18.501607133075595,4.1,18.999422,18-45-29,1.2346497,0.5113516,-0.043186843,354.0,0.09307551,0.021237748,-0.035165485
73.82248188368976,18.501607133075595,4.1,18.999422,18-45-29,0.46440876,-0.25951195,1.0693161,354.0,0.044817146,0.025513805,0.016758058
73.82248188368976,18.501607133075595,4.1,18.999422,18-45-30,-0.28234687,-0.8950062,1.4367466,355.0,-0.09629272,-0.039237913,0.05279911
73.82248188368976,18.501607133075595,4.1,18.999422,18-45-30,-1.6216166,2.173644,0.16050562,355.0,-0.059029948,0.0016900599,0.028364498
73.82248188368976,18.501607133075595,4.1,18.999422,18-45-30,-2.8147027,0.31664753,-1.6508653,355.0,0.019160807,0.09270898,-0.054713175
73.82248188368976,18.501607133075595,4.1,18.999422,18-45-30,-0.16513269,0.121748924,0.23312311,354.0,0.02893465,0.011463904,-0.014396068
73.82248188368976,18.501607133075595,4.1,18.999422,18-45-30,1.067016,0.4190693,-0.78161216,353.0,0.02526946,-0.062450793,-0.04249587
73.82248188368976,18.501607133075595,4.1,18.999422,18-45-30,2.4776032,0.26614475,-1.6587048,354.0,-0.0064955344,-0.08383107,0.040581804
73.82248188368976,18.501607133075595,4.1,18.999422,18-45-30,1.1933076,-0.7511616,-0.09206569,354.0,0.071695216,-0.0129707055,0.03813834
73.82243083789945,18.50160373840481,5.73,24.398438,18-45-30,2.3900297,0.2942314,1.5088316,354.0,0.030156381,-0.07222463,0.12549208
73.82243083789945,18.50160373840481,5.73,24.398438,18-45-30,0.6363392,-0.2608223,-0.96588624,353.0,-0.20624846,-0.088718,0.122437745
73.82243083789945,18.50160373840481,5.73,24.398438,18-45-30,-0.7182073,0.68812275,0.37203473,351.0,-0.04314745,0.002300925,-0.030278563
73.82243083789945,18.50160373840481,5.73,24.398438,18-45-31,0.35335782,1.1966705,-0.11085749,352.0,0.022825997,-0.020301089,0.015536327
73.82243083789945,18.50160373840481,5.73,24.398438,18-45-31,0.07780981,0.9394474,2.8268275,352.0,-0.10423397,-0.06733771,0.032029692
73.82243083789945,18.50160373840481,5.73,24.398438,18-45-31,0.19256869,-0.47836018,1.2420313,353.0,-0.08163196,-0.049011756,0.043636132
73.82243083789945,18.50160373840481,5.73,24.398438,18-45-31,0.2112833,-0.84867764,-1.4543407,352.0,0.042373687,0.0554462,0.02531017
73.82243083789945,18.50160373840481,5.73,24.398438,18-45-31,1.3147041,-0.06472778,0.767389,351.0,0.035043303,0.010242173,-0.009509146
73.82243083789945,18.50160373840481,5.73,24.398438,18-45-31,-1.3047631,-0.3244667,1.1238433,352.0,-0.024821494,0.017572556,-0.008898281
73.82243083789945,18.50160373840481,5.73,24.398438,18-45-31,0.47607204,-0.53611183,0.28897887,353.0,-0.041925717,0.14096732,-0.06876308
73.82238079793751,18.501593973487616,4.8599997,29.771858,18-45-31,0.48753536,0.21095753,-0.85770524,354.0,0.041151956,0.046283223,-0.018672124
73.82238079793751,18.501593973487616,4.8599997,29.771858,18-45-31,0.1793518,0.71557236,2.1528106,353.0,-0.071858115,-0.00869465,-0.043106735
73.82238079793751,18.501593973487616,4.8599997,29.771858,18-45-31,1.4563,0.70593166,1.2078665,353.0,0.015495615,0.061554853,-0.114577964
73.82238079793751,18.501593973487616,4.8599997,29.771858,18-45-32,-0.12681727,-0.06279564,-2.0216012,353.0,-0.018101975,-0.03679445,-0.043106735
73.82238079793751,18.501593973487616,4.8599997,29.771858,18-45-32,1.3200872,0.2439518,0.767105,354.0,0.087577716,0.023070343,-0.09197596
73.82238079793751,18.501593973487616,4.8599997,29.771858,18-45-32,1.9283731,0.052248,1.2253244,354.0,-0.12805772,-0.024577145,0.074179396
73.82238079793751,18.501593973487616,4.8599997,29.771858,18-45-32,-0.030908346,-0.0041074753,-0.34102583,354.0,-0.08712974,-0.050844353,0.05402084
73.82238079793751,18.501593973487616,4.8599997,29.771858,18-45-32,-0.95474494,0.09986591,-1.2297909,354.0,-0.19403116,0.008409577,0.0045407563
73.82238079793751,18.501593973487616,4.8599997,29.771858,18-45-32,-1.429925,-0.5456667,-1.7420652,355.0,-0.20136154,0.029789861,0.040581804
73.82238079793751,18.501593973487616,4.8599997,29.771858,18-45-32,-0.6392124,0.5338707,0.07296646,356.0,-0.10484484,0.015129095,0.027142767
73.82233042269945,18.501592255197465,5.77,35.077675,18-45-32,-1.6037384,0.5906,-0.44572777,356.0,-0.02909755,0.05850053,0.0100385435
73.82233042269945,18.501592255197465,5.77,35.077675,18-45-32,-0.5016843,-0.062434196,-1.886175,357.0,-0.11889474,0.06338745,-0.011341739
73.82233042269945,18.501592255197465,5.77,35.077675,18-45-32,-0.18446517,0.3305254,-0.8839854,358.0,-0.089573205,-0.009305514,0.047301326
73.82233042269945,18.501592255197465,5.77,35.077675,18-45-33,-0.69959116,0.41958523,-0.8648832,357.0,0.099184155,0.066441774,-0.015617799
73.82233042269945,18.501592255197465,5.77,35.077675,18-45-33,-0.23932724,0.29158306,0.4903636,357.0,0.017939076,0.04017457,-0.03577635
73.82233042269945,18.501592255197465,5.77,35.077675,18-45-33,-1.1870246,-0.020115852,-0.5840859,357.0,0.019160807,0.009020443,0.027753633
73.82233042269945,18.501592255197465,5.77,35.077675,18-45-33,-0.49020872,0.4631672,1.923986,357.0,0.13644694,0.049948413,-0.07426086
73.82233042269945,18.501592255197465,5.77,35.077675,18-45-33,-0.4177321,0.48255062,1.5077281,357.0,0.013663019,0.1275283,-0.08281298
73.82233042269945,18.501592255197465,5.77,35.077675,18-45-33,0.2359151,-0.41638184,0.044430096,357.0,0.14866424,0.077437356,-0.08708903
73.82233042269945,18.501592255197465,5.77,35.077675,18-45-33,-0.571715,-0.23490047,-1.003527,357.0,-0.044980045,0.06216572,-0.03333289
73.82227853871882,18.50158349610865,5.73,40.631626,18-45-33,-0.7458391,-0.07527542,-0.8376748,358.0,0.017939076,0.037120245,-0.023559047
73.82227853871882,18.50158349610865,5.73,40.631626,18-45-33,-0.31706133,0.031349182,-0.40056115,358.0,-0.055364754,0.07499389,-0.07487173
73.82227853871882,18.50158349610865,5.73,40.631626,18-45-34,1.288032,0.19246006,0.722064,358.0,-0.03398447,0.047504954,-0.07670432
73.82227853871882,18.50158349610865,5.73,40.631626,18-45-34,0.894749,0.039322853,-0.2916203,358.0,-0.067582056,0.03528765,-0.038830675
73.82227853871882,18.50158349610865,5.73,40.631626,18-45-34,-0.38773122,0.42119884,-1.4250077,358.0,0.019771673,-0.050844353,-0.004011359
73.82227853871882,18.50158349610865,5.73,40.631626,18-45-34,1.7337533,0.3955841,-0.87836224,357.0,0.080247335,-0.089328855,0.10105747
73.82227853871882,18.50158349610865,5.73,40.631626,18-45-34,0.7253037,0.87295914,-0.9591151,356.0,0.1474425,-0.06550512,-0.0058439523
73.82227853871882,18.50158349610865,5.73,40.631626,18-45-34,0.10098258,0.36811543,1.4575732,355.0,-0.023599762,0.0016900599,-0.02416991
73.82227853871882,18.50158349610865,5.73,40.631626,18-45-34,-0.17418577,-0.33203506,1.4314713,356.0,0.11262319,-0.02152282,0.003319025
73.82227853871882,18.50158349610865,5.73,40.631626,18-45-34,0.42718792,-0.9091816,0.5032933,357.0,0.05947791,-0.07405723,0.047301326
73.8222245592624,18.501574737019837,5.79,46.407585,18-45-34,0.37497255,-0.6266651,0.31792733,356.0,-0.14027502,-0.03435099,0.035694886
73.8222245592624,18.501574737019837,5.79,46.407585,18-45-34,0.14443536,0.19715786,0.9069044,356.0,-0.15676838,-0.04107051,0.018590655
73.8222245592624,18.501574737019837,5.79,46.407585,18-45-35,-0.81567633,1.0768337,0.22559857,356.0,-0.05475389,0.016350826,-0.057156634
73.8222245592624,18.501574737019837,5.79,46.407585,18-45-35,-0.24824849,-0.44690323,-1.3914942,355.0,0.15782721,-0.00869465,-0.027224237
73.8222245592624,18.501574737019837,5.79,46.407585,18-45-35,1.5658693,0.88722134,-3.938858,355.0,0.14438818,0.093930714,-0.1561168
73.8222245592624,18.501574737019837,5.79,46.407585,18-45-35,0.70458037,0.31340122,-0.81487143,355.0,-0.03764966,0.0010791947,-0.06265442
73.8222245592624,18.501574737019837,5.79,46.407585,18-45-35,-0.12563509,1.4307909,-3.8625252,355.0,0.1370578,-0.052066084,0.0100385435
73.8222245592624,18.501574737019837,5.79,46.407585,18-45-35,1.3871342,2.2974377,-3.26124,354.0,0.17004453,-0.10215703,0.026531901
73.8222245592624,18.501574737019837,5.79,46.407585,18-45-35,-1.8262846,-0.01748085,-0.562894,352.0,-0.0492561,0.093930714,-0.20437515
73.8222245592624,18.501574737019837,5.79,46.407585,18-45-35,1.6488978,0.97983456,4.69424,356.0,0.1388904,0.0077987127,-0.13595825
73.82217468693852,18.501564594917,4.7799997,51.775093,18-45-35,-0.19622692,-0.9121704,1.2418449,0.0,-0.03764966,-0.13331117,0.04669046
73.82217468693852,18.501564594917,4.7799997,51.775093,18-45-35,0.75912476,-0.20997143,0.7333126,359.0,0.18653789,-0.08566367,0.024699312
73.82217468693852,18.501564594917,4.7799997,51.775093,18-45-36,2.6313622,-0.97901917,3.167312,358.0,0.2109725,-0.042903103,0.11571823
73.82217468693852,18.501564594917,4.7799997,51.775093,18-45-36,2.2572627,-1.3499708,1.8497032,357.0,-0.21174626,-0.109487414,0.07662286
73.82217468693852,18.501564594917,4.7799997,51.775093,18-45-36,0.5219132,-0.55735207,2.4309816,357.0,-0.26061547,-0.13392203,0.06562728
73.82217468693852,18.501564594917,4.7799997,51.775093,18-45-36,-0.6334622,-0.29227924,-2.8667216,357.0,-0.50862676,-0.17057395,0.05402084
73.82217468693852,18.501564594917,4.7799997,51.775093,18-45-36,-2.501393,3.0597563,-2.5347657,358.0,-0.25267422,0.05055928,0.07845545
73.82217468693852,18.501564594917,4.7799997,51.775093,18-45-36,-1.6639626,2.684225,-2.8095098,358.0,-0.14638367,0.13424781,-0.044328466
73.82217468693852,18.501564594917,4.7799997,51.775093,18-45-36,0.9792311,0.3378353,-2.0760074,357.0,0.03931936,0.0713287,-0.11824316
73.82217468693852,18.501564594917,4.7799997,51.775093,18-45-36,-0.20741877,0.98265743,-0.46459612,357.0,0.18531616,0.11775446,-0.0058439523
73.82213252596557,18.50156103260815,4.35,56.240513,18-45-36,0.49681437,-0.37945747,0.2779191,357.0,0.1914248,0.04872668,-0.05104798
73.82213252596557,18.50156103260815,4.35,56.240513,18-45-36,1.1980876,-0.95457554,-0.494685,355.0,0.10590368,0.057889663,-0.09503028
73.82213252596557,18.50156103260815,4.35,56.240513,18-45-37,2.2152898,-0.89809513,0.35182488,356.0,0.08574512,-0.022133686,-0.06693048
73.82213252596557,18.50156103260815,4.35,56.240513,18-45-37,-1.3442721,0.5713501,0.25113457,357.0,0.06558657,0.029178996,-0.0076765493
73.82213252596557,18.50156103260815,4.35,56.240513,18-45-37,-1.8317448,0.8192873,1.9078315,359.0,0.12789482,0.03162246,-0.023559047
73.82213252596557,18.50156103260815,4.35,56.240513,18-45-37,-1.0402397,0.07636452,2.3751094,358.0,0.03198898,-0.0074729184,0.028975364
73.82213252596557,18.50156103260815,4.35,56.240513,18-45-37,-1.0261819,0.42461777,0.9291338,358.0,-0.08835147,0.09026552,-0.0046222247
73.82213252596557,18.50156103260815,4.35,56.240513,18-45-37,-0.15686405,0.27311897,-1.4570612,357.0,-0.07124725,0.106758885,-0.06448702
73.82213252596557,18.50156103260815,4.35,56.240513,18-45-37,-0.54348,0.43837357,-0.25367665,356.0,0.091853775,0.045672357,-0.049826253
73.82213252596557,18.50156103260815,4.35,56.240513,18-45-37,-0.24420944,0.4882536,0.22697219,357.0,-9.977464E-4,0.0029117905,0.053409975
73.8220929633826,18.501562625169754,3.29,60.36434,18-45-37,-1.6979233,0.3877678,0.67987436,356.0,0.39972985,-0.063061655,-0.0052330904
73.8220929633826,18.501562625169754,3.29,60.36434,18-45-37,0.040180914,-0.05833149,-2.2645378,356.0,0.16576847,0.020016018,-0.0070656836
73.8220929633826,18.501562625169754,3.29,60.36434,18-45-38,1.3455071,-0.4267006,0.9057348,355.0,0.13827953,-0.00869465,-0.06815221
73.8220929633826,18.501562625169754,3.29,60.36434,18-45-38,-0.828276,-0.9174347,2.0092776,355.0,-0.009549861,-0.049011756,0.04669046
73.8220929633826,18.501562625169754,3.29,60.36434,18-45-38,-0.13050388,-0.4590845,1.0141385,356.0,-0.10362311,-0.009305514,0.014314599
73.8220929633826,18.501562625169754,3.29,60.36434,18-45-38,-0.07714345,-0.0053863525,-0.043690674,355.0,-0.089573205,-0.017246764,-0.0015678965
73.8220929633826,18.501562625169754,3.29,60.36434,18-45-38,-0.83615184,0.4212246,0.30351827,353.0,-0.042536583,0.02490294,-0.077926055
73.8220929633826,18.501562625169754,3.29,60.36434,18-45-38,-1.2798802,0.6949234,-0.84106857,353.0,0.013663019,-0.0025859969,-0.015006933
73.8220929633826,18.501562625169754,3.29,60.36434,18-45-38,-0.49868718,0.47902775,-0.9284406,354.0,0.0063326363,0.02490294,-0.051658846
73.8220929633826,18.501562625169754,3.29,60.36434,18-45-38,-0.23235416,0.5371208,-0.3266665,354.0,-0.003441208,-0.022744551,0.028364498
73.82206446491182,18.50156396627426,2.6499999,63.337223,18-45-38,-0.6485934,0.6634445,0.3581038,354.0,0.020993402,-0.07711156,0.10533352
73.82206446491182,18.50156396627426,2.6499999,63.337223,18-45-38,1.2799256,-0.22737217,-0.6339906,352.0,-0.0211563,0.009020443,-0.021115584
73.82206446491182,18.50156396627426,2.6499999,63.337223,18-45-39,0.3161109,0.6074133,0.025410336,352.0,0.06986263,-0.11620693,0.09372708
73.82206446491182,18.50156396627426,2.6499999,63.337223,18-45-39,-0.43095574,0.17174911,0.60446167,352.0,0.06069964,-0.04840089,0.032029692
73.82206446491182,18.50156396627426,2.6499999,63.337223,18-45-39,-0.4545777,0.107061386,-0.6493454,351.0,0.11445579,-0.024577145,-0.09930634
73.82206446491182,18.50156396627426,2.6499999,63.337223,18-45-39,0.025621936,-0.4287262,0.45645082,352.0,-0.011993322,-0.039237913,-0.028445968
73.82206446491182,18.50156396627426,2.6499999,63.337223,18-45-39,-0.32317427,0.09465313,1.8686786,353.0,0.0668083,-0.09177232,0.03386229
73.82206446491182,18.50156396627426,2.6499999,63.337223,18-45-39,0.21089813,-0.6881428,-0.51106095,353.0,0.068640895,-0.08383107,-9.570308E-4
73.82206446491182,18.50156396627426,2.6499999,63.337223,18-45-39,-0.19284955,-0.50360775,-0.34809038,352.0,-0.027875818,-0.0691703,-0.035165485
73.82204250432551,18.50156467873603,2.03,65.634315,18-45-39,0.06670418,-0.03934288,-0.8294407,353.0,0.004500041,-0.09116145,0.021034118
73.82204250432551,18.50156467873603,2.03,65.634315,18-45-39,-0.124654554,0.3721552,-0.11281215,353.0,-0.014436782,-0.11926126,0.03691661
73.82204250432551,18.50156467873603,2.03,65.634315,18-45-39,-0.7212755,0.31581402,-0.18283378,354.0,-0.01749111,-0.09971357,0.021034118
73.82204250432551,18.50156467873603,2.03,65.634315,18-45-40,0.19363165,0.23090744,0.14027473,354.0,-0.024821494,-0.06611598,0.0020972937
73.82204250432551,18.50156467873603,2.03,65.634315,18-45-40,0.2504343,-0.2629013,-0.6730261,354.0,-0.01749111,-0.11926126,0.050355647
73.82204250432551,18.50156467873603,2.03,65.634315,18-45-40,0.35858518,0.4799862,0.28994974,354.0,0.0063326363,-0.15408058,0.07723372
73.82204250432551,18.50156467873603,2.03,65.634315,18-45-40,-0.06307165,0.2069416,-0.6637269,352.0,0.014884749,-0.08138761,0.011260275
73.82204250432551,18.50156467873603,2.03,65.634315,18-45-40,0.17842153,0.31277657,-1.1115029,352.0,-0.046201777,-0.07711156,0.031418826
73.82204250432551,18.50156467873603,2.03,65.634315,18-45-40,0.168143,-0.0121536255,-0.47571898,351.0,0.011830424,-0.12598078,0.0039298907
73.82204250432551,18.50156467873603,2.03,65.634315,18-45-40,0.6721803,0.4129362,-0.8428134,351.0,-0.008938995,-0.1785152,0.013092868
73.82204250432551,18.50156467873603,2.03,65.634315,18-45-40,0.3816834,0.7305269,-0.7686755,350.0,-0.101179644,-0.14736107,-0.03455462
73.82202615961432,18.501567444764078,1.4699999,67.32033,18-45-40,-0.28820378,0.45642662,-0.35526773,350.0,-0.063306,-0.14980453,-0.0577675
73.82202615961432,18.501567444764078,1.4699999,67.32033,18-45-40,-0.441988,-0.022555351,-0.37151045,351.0,0.038097627,-0.17912605,0.013703734
73.82202615961432,18.501567444764078,1.4699999,67.32033,18-45-41,1.0707023,-0.18222237,0.25144437,351.0,0.046649743,-0.14064154,0.006984215
73.82202615961432,18.501567444764078,1.4699999,67.32033,18-45-41,-1.0140228,0.85077,-1.0269874,350.0,0.099184155,-0.15408058,-0.091365084
73.82202615961432,18.501567444764078,1.4699999,67.32033,18-45-41,-0.7609131,0.44478607,-0.1170809,351.0,0.009386962,-0.1290351,-0.04249587
73.82202615961432,18.501567444764078,1.4699999,67.32033,18-45-41,-1.231993,-0.53422356,-3.0742059,353.0,0.086355984,-0.22555181,0.0020972937
73.82202615961432,18.501567444764078,1.4699999,67.32033,18-45-41,-0.41054624,-0.71833897,-2.3133833,353.0,0.1230079,-0.21455625,0.0020972937
73.82202615961432,18.501567444764078,1.4699999,67.32033,18-45-41,0.55114305,0.41007996,0.45730948,353.0,0.12056444,-0.22616269,0.007595081
73.82202615961432,18.501567444764078,1.4699999,67.32033,18-45-41,0.6549688,-0.29398346,0.39513913,352.0,0.09979502,-0.24815382,-0.03455462
73.82202615961432,18.501567444764078,1.4699999,67.32033,18-45-41,0.58075,0.1218338,0.6491344,353.0,0.07536041,-0.2414343,-0.012563471
73.82201249711215,18.501570504158735,1.31,68.724655,18-45-41,-0.05451545,0.39516926,-1.3781669,353.0,-0.06697119,-0.2536516,0.06807074
73.82201249711215,18.501570504158735,1.31,68.724655,18-45-41,-0.11520809,0.19355392,-0.69502574,352.0,0.075971276,-0.21272364,-0.016228663
73.82201249711215,18.501570504158735,1.31,68.724655,18-45-42,1.9187628,-0.43677616,-3.2437875,351.0,-0.30520862,-0.26220372,0.074790254
73.82201249711215,18.501570504158735,1.31,68.724655,18-45-42,-0.45671093,-2.8594632,4.970013,352.0,-0.64973664,-0.21699971,-0.20498602
73.82201249711215,18.501570504158735,1.31,68.724655,18-45-42,-0.43901277,-2.881023,5.943744,357.0,-0.4725857,-0.52548665,0.17008524
73.82201249711215,18.501570504158735,1.31,68.724655,18-45-42,1.5194901,-3.3632717,6.1346736,2.0,-0.36324084,-0.3098512,0.104722664
73.82201249711215,18.501570504158735,1.31,68.724655,18-45-42,1.4127039,-2.4382024,4.404223,5.0,-0.3388062,-0.37704638,0.20612629
73.82201249711215,18.501570504158735,1.31,68.724655,18-45-42,-0.32886606,-1.8387389,-1.0978619,7.0,-0.31742594,-0.34405965,-0.0052330904
73.82201249711215,18.501570504158735,1.31,68.724655,18-45-42,-2.0187993,0.2883215,-3.111887,9.0,-0.26122633,-0.23410393,-0.057156634
73.82201249711215,18.501570504158735,1.31,68.724655,18-45-42,-1.1422923,0.67604256,0.87611824,12.0,-0.33330843,-0.19745201,0.024088446
73.8220017682761,18.501572599634528,1.8,69.8326,18-45-42,-1.9436165,1.6043167,-1.4352233,16.0,-0.086518876,-0.15285885,-0.041885003
73.8220017682761,18.501572599634528,1.8,69.8326,18-45-42,-0.9737673,1.1178942,0.29098755,20.0,0.11384492,-0.13758722,-0.06570875
73.8220017682761,18.501572599634528,1.8,69.8326,18-45-43,-0.08901362,0.26057053,-1.2882435,26.0,0.09429724,-0.15774578,0.0027081594
73.8220017682761,18.501572599634528,1.8,69.8326,18-45-43,-0.23531157,0.14509392,-0.3118512,29.0,0.12056444,-0.11437433,-0.02050472
73.8220017682761,18.501572599634528,1.8,69.8326,18-45-43,-0.01454027,-0.38571167,-0.09268442,31.0,0.07963647,-0.12170472,0.011260275
73.8220017682761,18.501572599634528,1.8,69.8326,18-45-43,0.4642162,-0.3486147,0.40875208,32.0,0.0490932,-0.14064154,0.021034118
73.8220017682761,18.501572599634528,1.8,69.8326,18-45-43,0.16781507,-0.61088085,0.2602379,32.0,-0.013215051,-0.15591317,0.033251423
73.8220017682761,18.501572599634528,1.8,69.8326,18-45-43,0.3499825,-0.48365402,-0.63557464,33.0,-0.046812642,-0.10765482,0.0039298907
73.8220017682761,18.501572599634528,1.8,69.8326,18-45-43,-0.12777853,-0.07513332,0.435306,34.0,-0.027264953,-0.109487414,0.01797979
73.82199355401099,18.501575742848217,1.28,70.668045,18-45-43,0.29403,0.007882118,0.21115327,35.0,0.0014457144,-0.13025683,0.008816812
73.82199355401099,18.501575742848217,1.28,70.668045,18-45-43,-0.24681026,0.12425327,-0.21141544,36.0,-0.023599762,-0.11559606,0.031418826
73.82199355401099,18.501575742848217,1.28,70.668045,18-45-43,-0.16829029,0.13933659,-0.2727616,36.0,-0.020545434,-0.074668095,-0.002178762
73.82199355401099,18.501575742848217,1.28,70.668045,18-45-44,0.11146657,0.17084503,0.47911242,37.0,-0.0211563,-0.112541735,0.022866715
73.82199355401099,18.501575742848217,1.28,70.668045,18-45-44,-0.22306174,-0.037418365,0.4005375,38.0,-9.977464E-4,-0.10887655,0.0045407563
73.82199355401099,18.501575742848217,1.28,70.668045,18-45-44,0.2808952,0.40907478,0.886081,38.0,-0.059640814,-0.11437433,0.010649409
73.82199355401099,18.501575742848217,1.28,70.668045,18-45-44,-0.3349272,0.5593128,-0.10686916,39.0,-0.018712837,-0.097880974,-0.011952605
73.82199355401099,18.501575742848217,1.28,70.668045,18-45-44,-0.15690085,0.17437935,-0.1337975,39.0,-0.0064955344,-0.08383107,-0.036387216
73.82199355401099,18.501575742848217,1.28,70.668045,18-45-44,0.08104105,0.20882702,-0.24121612,40.0,0.013663019,-0.093604915,-0.008287415
73.82199355401099,18.501575742848217,1.28,70.668045,18-45-44,-0.0033373237,0.3044176,0.5923415,41.0,-0.019934569,-0.07344636,-0.013174336
73.82199355401099,18.501575742848217,1.28,70.668045,18-45-44,0.19645664,-0.38179302,1.1620216,42.0,-0.03398447,-0.06733771,-0.013785202
73.82198391482234,18.501580813899636,0.74,71.640434,18-45-44,0.0843775,-0.20455837,0.055485457,43.0,-0.09629272,-0.087496266,0.03813834
73.82198391482234,18.501580813899636,0.74,71.640434,18-45-44,-0.40599602,0.5936947,-0.79155797,44.0,-0.073690705,-0.07405723,0.046079595
73.82198391482234,18.501580813899636,0.74,71.640434,18-45-45,-0.04769087,1.3204613,-1.8959875,44.0,0.063143104,-0.056953,0.015536327
73.82198391482234,18.501580813899636,0.74,71.640434,18-45-45,-0.4399375,1.4605951,-2.0919564,44.0,0.12056444,-0.028242338,-0.018061258
73.82198391482234,18.501580813899636,0.74,71.640434,18-45-45,-0.07416561,0.9921379,-0.48706412,43.0,0.18837048,-0.0025859969,-0.06387615
73.82198391482234,18.501580813899636,0.74,71.640434,18-45-45,0.33304682,-0.67150974,1.2724832,44.0,0.110790595,-0.011748976,-0.06021096
73.82198391482234,18.501580813899636,0.74,71.640434,18-45-45,1.3237548,-3.4777355,1.3642329,44.0,-0.23495913,0.006576982,-0.045550194
73.82198391482234,18.501580813899636,0.74,71.640434,18-45-45,2.0544899,-2.2825065,3.5991895,44.0,-0.4481511,-0.020911954,0.035694886
73.82198391482234,18.501580813899636,0.74,71.640434,18-45-45,-0.87958324,-1.151392,0.93528044,44.0,-0.30826297,0.012685634,0.11571823
73.82197729311883,18.501585759222507,0.52,72.30128,18-45-45,-0.4794693,0.4145422,0.608083,44.0,-0.25511768,-0.019690223,0.03813834
73.82197729311883,18.501585759222507,0.52,72.30128,18-45-45,-0.024716228,2.1360807,0.6375873,45.0,0.19631173,0.02856813,-0.096862875
73.82197729311883,18.501585759222507,0.52,72.30128,18-45-45,-1.1833915,1.1533298,-2.9321942,45.0,-0.022378031,-0.07344636,-0.002178762
73.82197729311883,18.501585759222507,0.52,72.30128,18-45-46,-0.15043226,0.3803997,-1.273122,45.0,0.13217087,-0.050233487,-0.045550194
73.82197729311883,18.501585759222507,0.52,72.30128,18-45-46,0.5586378,0.7239809,-1.381804,45.0,0.14316645,-0.06733771,-0.06143269
73.82197729311883,18.501585759222507,0.52,72.30128,18-45-46,0.31356883,0.17519283,0.748474,46.0,0.09124291,-0.10215703,-0.062043555
73.82197729311883,18.501585759222507,0.52,72.30128,18-45-46,0.3015867,0.14326668,1.4064472,47.0,-0.052310426,-0.12475904,-0.017450394
73.82197729311883,18.501585759222507,0.52,72.30128,18-45-46,0.8888687,-0.27334213,0.6772095,48.0,-0.0773559,-0.13758722,0.059518624
73.82197729311883,18.501585759222507,0.52,72.30128,18-45-46,0.7407284,0.20712566,0.51522493,47.0,-0.028486684,-0.13941981,0.013703734
73.82197729311883,18.501585759222507,0.52,72.30128,18-45-46,-0.5446075,-0.76590157,-1.9042788,47.0,-0.044980045,-0.009305514,-0.011952605
73.82197167724371,18.501592548564076,0.82,72.8499,18-45-46,-1.2970842,0.6871071,-2.282519,48.0,-0.043758314,-0.12292645,0.052188244
73.82197167724371,18.501592548564076,0.82,72.8499,18-45-46,-0.18663843,1.4653215,-1.9090316,49.0,-0.03154101,-0.074668095,0.043636132
73.82197167724371,18.501592548564076,0.82,72.8499,18-45-46,0.24363282,1.0334692,-1.2754295,48.0,-0.011993322,-0.11559606,-0.02416991
73.82197167724371,18.501592548564076,0.82,72.8499,18-45-47,1.0385197,1.6663446,3.1444182,47.0,0.25861996,-0.058174733,-0.108469315
73.82197167724371,18.501592548564076,0.82,72.8499,18-45-47,0.3594485,0.2819643,0.23891592,47.0,0.11567752,-0.071613766,-0.027835103
73.82197167724371,18.501592548564076,0.82,72.8499,18-45-47,0.15846244,0.10262108,0.59029305,47.0,0.015495615,-0.099102706,-0.05898923
73.82197167724371,18.501592548564076,0.82,72.8499,18-45-47,0.54567486,0.06011963,2.6955795,48.0,-0.10606657,-0.1485828,-0.018061258
73.82197167724371,18.501592548564076,0.82,72.8499,18-45-47,0.5487111,0.46270752,2.575546,49.0,0.14683165,-0.13025683,-0.054713175
73.82197167724371,18.501592548564076,0.82,72.8499,18-45-47,-0.18766075,0.6126833,0.18646526,52.0,-0.027875818,-0.1571349,0.020423252
73.82197167724371,18.501592548564076,0.82,72.8499,18-45-47,-0.8132228,0.3609333,0.17124939,53.0,-0.026654087,-0.093604915,-0.07609346
73.82196513935924,18.501606797799468,2.1,73.47437,18-45-47,0.794336,0.876812,2.8308644,55.0,0.07291695,-0.087496266,-0.02050472
73.82196513935924,18.501606797799468,2.1,73.47437,18-45-47,0.61435825,0.18072319,1.5063659,54.0,0.08330166,-0.08993972,-0.025391642
73.82196513935924,18.501606797799468,2.1,73.47437,18-45-47,0.90115184,0.7400036,0.15290189,53.0,0.07352781,-0.1149852,-0.033943757
73.82196513935924,18.501606797799468,2.1,73.47437,18-45-48,0.8434198,-0.32907677,-0.3655584,52.0,0.17065538,-0.25304073,-0.011341739
73.82196513935924,18.501606797799468,2.1,73.47437,18-45-48,1.358399,0.90425587,-0.9225434,50.0,0.028323784,-0.16507615,-0.07853692
73.82196513935924,18.501606797799468,2.1,73.47437,18-45-48,0.37053984,1.247345,1.3349516,51.0,0.0032783104,-0.17485,-0.0058439523
73.82196513935924,18.501606797799468,2.1,73.47437,18-45-48,-0.11113632,0.109272,-0.2479887,52.0,-0.032151874,-0.1345329,0.05279911
73.82196513935924,18.501606797799468,2.1,73.47437,18-45-48,1.5225227,1.2170677,1.2207812,52.0,0.039930224,-0.18951076,0.034473155
73.82196513935924,18.501606797799468,2.1,73.47437,18-45-48,0.10319939,0.34439468,0.4489758,53.0,0.03565417,-0.23410393,0.010649409
73.82196513935924,18.501606797799468,2.1,73.47437,18-45-48,-0.33750993,0.24536991,-1.7604241,52.0,-0.005884669,-0.16935222,-0.05104798
73.82196513935924,18.501606797799468,2.1,73.47437,18-45-48,0.24706279,0.4280243,0.56004643,52.0,0.08207993,-0.15774578,-0.013785202
73.821956589818,18.501626662909985,2.05,74.343056,18-45-48,0.22991087,-0.43111992,0.5215601,52.0,-0.043758314,-0.12292645,-0.053491443
73.821956589818,18.501626662909985,2.05,74.343056,18-45-48,0.2631196,0.89557076,-0.92703867,52.0,-0.10606657,-0.11620693,-0.06021096
73.821956589818,18.501626662909985,2.05,74.343056,18-45-49,0.7342811,0.28069782,-0.75119853,52.0,-0.114618674,-0.2646472,-9.570308E-4
73.821956589818,18.501626662909985,2.05,74.343056,18-45-49,0.6600325,0.76321983,-0.5239217,52.0,-0.15065973,-0.20050634,-0.040052406
73.821956589818,18.501626662909985,2.05,74.343056,18-45-49,0.5289292,0.4890356,-1.3483746,51.0,-0.15188146,-0.13392203,-0.03577635
73.821956589818,18.501626662909985,2.05,74.343056,18-45-49,-0.44455904,0.46229458,1.1359129,52.0,-0.048645236,-0.16263269,-0.07670432
73.821956589818,18.501626662909985,2.05,74.343056,18-45-49,-0.030604398,-0.1608944,0.7952301,53.0,-0.016269378,-0.110709146,-0.06143269
73.821956589818,18.501626662909985,2.05,74.343056,18-45-49,-0.032759517,0.54235744,0.1907672,57.0,-0.053532157,-0.09421578,-0.04616106
73.821956589818,18.501626662909985,2.05,74.343056,18-45-49,-0.65330315,0.37265015,-2.5500164,58.0,-0.06880379,-0.07711156,0.096170545
73.821956589818,18.501626662909985,2.05,74.343056,18-45-49,-1.4189173,0.28400517,-2.5885053,58.0,0.10407108,-0.12353731,0.032029692
73.82194980047643,18.501649252139032,3.01,75.10026,18-45-49,1.6714635,0.20920086,2.3232484,58.0,-0.18608992,-0.08077674,0.044246998
73.82194980047643,18.501649252139032,3.01,75.10026,18-45-49,1.6382018,-0.5008478,-0.116426185,56.0,-0.10423397,-0.105211355,0.061962087
73.82194980047643,18.501649252139032,3.01,75.10026,18-45-50,0.44684535,-0.37031174,-0.15778014,55.0,0.016717345,-0.08566367,0.0045407563
73.82194980047643,18.501649252139032,3.01,75.10026,18-45-50,1.3521016,0.55839443,2.846599,57.0,-0.14699453,-0.110709146,0.035694886
73.82194980047643,18.501649252139032,3.01,75.10026,18-45-50,1.3065164,-0.21101284,-1.1625357,59.0,0.014273885,-0.10582222,0.104722664
73.82194980047643,18.501649252139032,3.01,75.10026,18-45-50,-0.25947452,-0.2659273,-1.8942767,60.0,-0.17081828,0.060943987,0.108998716
73.82194980047643,18.501649252139032,3.01,75.10026,18-45-50,1.0306208,1.1421194,1.4929329,67.0,-0.22701788,-0.09849184,0.09128362
73.82194980047643,18.501649252139032,3.01,75.10026,18-45-50,0.4208102,0.5725765,0.80669016,72.0,-0.049866967,0.07682649,0.057686035
73.82194980047643,18.501649252139032,3.01,75.10026,18-45-50,-0.39882556,-1.406724,0.32327867,77.0,-0.23495913,0.04689409,0.07112506
73.82194091565907,18.50167963653803,3.57,76.2209,18-45-50,-0.57273376,-0.61272335,-0.17041373,79.0,0.067419164,-0.0129707055,0.017368924
73.82194091565907,18.50167963653803,3.57,76.2209,18-45-50,0.0732723,0.26757717,-0.71930003,77.0,-0.12011647,-0.010527245,-0.012563471
73.82194091565907,18.50167963653803,3.57,76.2209,18-45-50,0.89034957,0.75129795,3.5087957,73.0,-0.38767543,0.010242173,-0.023559047
73.82194091565907,18.50167963653803,3.57,76.2209,18-45-51,-1.1797826,0.92780685,-0.416506,72.0,0.008776098,0.05422447,-0.067541346
73.82194091565907,18.50167963653803,3.57,76.2209,18-45-51,-1.2944065,1.3333454,-3.4315412,75.0,0.06986263,-0.08077674,-0.036998082
73.82194091565907,18.50167963653803,3.57,76.2209,18-45-51,-0.6953949,0.8424511,-1.8832198,77.0,0.13156001,0.07865908,-0.015006933
73.82194091565907,18.50167963653803,3.57,76.2209,18-45-51,1.2936732,0.4362526,-0.8492491,78.0,0.1511077,0.011463904,0.02531017
73.82194091565907,18.50167963653803,3.57,76.2209,18-45-51,1.6571145,-0.5524187,0.1895699,77.0,0.031378113,-0.009916379,0.01797979
73.82194091565907,18.50167963653803,3.57,76.2209,18-45-51,1.8634361,-0.46536922,1.3997105,76.0,-0.06452773,-0.04595743,-0.013174336
73.82194091565907,18.50167963653803,3.57,76.2209,18-45-51,0.8024999,-1.4324169,-1.0238452,74.0,-0.2074702,-0.042903103,0.081509784
73.82193244993687,18.50170997902751,3.58,77.4383,18-45-51,-0.6501205,-0.36322403,0.2614417,76.0,-0.001608612,-0.13941981,0.0063733496
73.82193244993687,18.50170997902751,3.58,77.4383,18-45-51,0.32446653,0.5501938,-1.0991645,76.0,-0.001608612,0.016350826,-0.079758644
73.82193244993687,18.50170997902751,3.58,77.4383,18-45-51,-2.9912522,1.126255,0.83663684,76.0,0.07352781,-0.04717916,-0.09564114
73.82193244993687,18.50170997902751,3.58,77.4383,18-45-52,0.6617235,-1.3032551,2.680106,76.0,-0.10667743,0.04017457,-0.1121345
73.82193244993687,18.50170997902751,3.58,77.4383,18-45-52,3.06032,-1.0570879,-1.6976997,80.0,0.12422963,0.023681208,-0.07609346
73.82193244993687,18.50170997902751,3.58,77.4383,18-45-52,1.1307011,0.06611824,-1.4390771,81.0,-0.13416636,-0.06733771,0.039360072
73.82193244993687,18.50170997902751,3.58,77.4383,18-45-52,0.16969761,0.837718,1.4616058,80.0,-0.18303558,-0.050844353,8.7556243E-4
73.82193244993687,18.50170997902751,3.58,77.4383,18-45-52,1.374636,0.14879608,-1.0769751,77.0,-0.25206336,0.013907365,-0.011341739
73.82193244993687,18.50170997902751,3.58,77.4383,18-45-52,0.7411815,0.52418613,0.5951597,74.0,-0.10362311,0.037731107,-0.07120653
73.82193244993687,18.50170997902751,3.58,77.4383,18-45-52,1.675806,-0.6742983,0.23814446,76.0,-0.43898812,-0.074668095,-0.14145604
73.82192180491984,18.501743087545037,3.6699998,79.06669,18-45-52,0.8093264,0.44124985,0.29850185,78.0,-0.0064955344,0.059722256,-0.06387615
73.82192180491984,18.501743087545037,3.6699998,79.06669,18-45-52,1.0757337,1.1076508,-2.3451257,81.0,-0.24167866,0.009631308,-0.040663272
73.82192180491984,18.501743087545037,3.6699998,79.06669,18-45-52,-0.11807662,1.0530968,-2.6253047,82.0,-0.1952529,-0.004418593,0.022866715
73.82192180491984,18.501743087545037,3.6699998,79.06669,18-45-53,-0.53160655,1.6691961,-3.7215319,81.0,-0.08041023,-0.04595743,-0.030278563
73.82192180491984,18.501743087545037,3.6699998,79.06669,18-45-53,0.5247363,0.71542454,-0.87335706,80.0,0.068640895,0.04506149,-0.09380855
73.82192180491984,18.501743087545037,3.6699998,79.06669,18-45-53,1.1836042,-0.49367428,-1.3306139,82.0,0.17676404,0.016350826,-0.10785845
73.82192180491984,18.501743087545037,3.6699998,79.06669,18-45-53,1.7733221,0.12961864,2.752502,82.0,0.16210328,0.06522004,-0.09441942
73.82192180491984,18.501743087545037,3.6699998,79.06669,18-45-53,1.8001268,-0.42385674,2.2197244,82.0,0.06925176,-0.009305514,-0.06998481
73.82192180491984,18.501743087545037,3.6699998,79.06669,18-45-53,0.49986067,-0.7026491,-0.26025283,82.0,0.031378113,0.07560476,-0.026613371
73.82192180491984,18.501743087545037,3.6699998,79.06669,18-45-53,1.1162207,-0.19174957,-0.19037914,83.0,-0.11767301,-0.038627047,0.074790254
73.82191124372184,18.50177623797208,3.8799999,80.83644,18-45-53,0.61107576,0.11992741,0.744396,82.0,-0.10789916,-0.060618196,0.063183814
73.82191124372184,18.50177623797208,3.8799999,80.83644,18-45-53,0.7891902,0.63918686,0.69722486,80.0,0.011830424,-0.0868854,0.06012949
73.82191124372184,18.50177623797208,3.8799999,80.83644,18-45-53,1.0804563,0.21259403,0.7858794,79.0,-0.08590801,-0.025798876,0.04669046
73.82191124372184,18.50177623797208,3.8799999,80.83644,18-45-54,-0.9410702,0.14328098,-1.1656284,78.0,-0.018712837,0.0029117905,-0.038219813
73.82191124372184,18.50177623797208,3.8799999,80.83644,18-45-54,-0.92633975,-0.19230556,0.9764597,78.0,0.09002118,0.057278797,-0.07059567
73.82191124372184,18.50177623797208,3.8799999,80.83644,18-45-54,0.58055836,-0.0059843063,3.3908026,82.0,0.16576847,-0.032518394,0.0014864281
73.82191124372184,18.50177623797208,3.8799999,80.83644,18-45-54,0.38015258,-0.59252834,1.4683867,82.0,0.102238484,-0.02518801,0.049133915
73.82191124372184,18.50177623797208,3.8799999,80.83644,18-45-54,0.37432095,0.62628937,2.1629214,79.0,0.08941031,0.026735537,-0.03333289
73.82191124372184,18.50177623797208,3.8799999,80.83644,18-45-54,-1.6181744,-0.33262634,-2.5763707,77.0,-0.17204002,0.02856813,-0.0070656836
73.82191124372184,18.50177623797208,3.8799999,80.83644,18-45-54,0.11891389,-0.10130978,0.67468005,76.0,-0.10484484,-0.0025859969,-0.047993656
73.8219013530761,18.50181873422116,4.5699997,82.936134,18-45-54,0.2247378,0.46962166,1.4508148,77.0,-0.086518876,-0.017857626,-0.027835103
73.8219013530761,18.50181873422116,4.5699997,82.936134,18-45-54,-0.69103205,0.7040405,0.4744935,79.0,-0.005884669,4.6832953E-4,0.011871137
73.8219013530761,18.50181873422116,4.5699997,82.936134,18-45-54,-0.576909,0.94452,2.917647,79.0,0.10407108,0.0713287,-0.104193255
73.8219013530761,18.50181873422116,4.5699997,82.936134,18-45-55,-0.6696574,0.009167671,-0.47643268,81.0,0.09368637,0.006576982,-0.029667698
73.8219013530761,18.50181873422116,4.5699997,82.936134,18-45-55,0.4914097,0.44635487,0.04522288,81.0,0.087577716,0.01573996,0.01920152
73.8219013530761,18.50181873422116,4.5699997,82.936134,18-45-55,0.85441303,-0.48198223,1.7131395,80.0,-9.977464E-4,0.0035226557,-0.040052406
73.8219013530761,18.50181873422116,4.5699997,82.936134,18-45-55,0.14698702,-0.06943607,0.029401302,79.0,-0.012604185,0.0132965,-0.012563471
73.8219013530761,18.50181873422116,4.5699997,82.936134,18-45-55,0.32049847,-0.5113983,1.4399829,78.0,-0.042536583,-0.017857626,-0.040663272
73.8219013530761,18.50181873422116,4.5699997,82.936134,18-45-55,0.25962967,-0.45025826,-0.12554425,80.0,-0.03154101,-0.042292237,-3.4616515E-4
73.8219013530761,18.50181873422116,4.5699997,82.936134,18-45-55,0.8825326,-0.2737608,-0.34712338,81.0,-0.026043221,-0.06733771,0.07845545
73.82189372554421,18.50186873227358,5.21,85.285866,18-45-55,0.5033385,-0.008577347,1.8093543,80.0,0.00205658,-0.0587856,0.017368924
73.82189372554421,18.50186873227358,5.21,85.285866,18-45-55,0.43527722,0.5284014,-0.6950349,78.0,-0.0932384,-0.0129707055,-0.016839528
73.82189372554421,18.50186873227358,5.21,85.285866,18-45-55,-0.5569589,0.61866474,0.5757655,78.0,-0.05169956,-0.07405723,0.013703734
73.82189372554421,18.50186873227358,5.21,85.285866,18-45-56,-0.8317102,0.39473152,0.029349238,79.0,-0.059029948,-0.027020607,0.05279911
73.82189372554421,18.50186873227358,5.21,85.285866,18-45-56,-0.86251694,1.0656395,1.2487183,79.0,0.08818858,0.05422447,-0.054713175
73.82189372554421,18.50186873227358,5.21,85.285866,18-45-56,-0.76689255,0.10472584,-0.36350814,80.0,0.061921373,-0.0129707055,-0.03333289
73.82189372554421,18.50186873227358,5.21,85.285866,18-45-56,-0.18859044,0.45668507,0.43484342,80.0,0.0038891751,0.01451823,-0.006454818
73.82189372554421,18.50186873227358,5.21,85.285866,18-45-56,0.015837848,0.7772131,0.77348316,80.0,0.024658594,-0.0148033025,-0.06998481
73.82189372554421,18.50186873227358,5.21,85.285866,18-45-56,-0.32114467,-0.58288574,0.41779023,80.0,0.03198898,-0.009305514,-0.056545768
73.82189372554421,18.50186873227358,5.21,85.285866,18-45-56,-0.40382844,-0.7371712,0.2718787,81.0,-0.022378031,-0.019079357,-9.570308E-4
73.82189372554421,18.50186873227358,5.21,85.285866,18-45-56,-0.22209364,0.12859821,0.20494902,81.0,-0.025432356,-0.01113811,-0.027224237
73.82187972776592,18.501917556859553,5.0299997,88.507774,18-45-56,0.23632115,-0.15351963,0.5458106,81.0,-0.008938995,-0.009916379,-0.02172645
73.82187972776592,18.501917556859553,5.0299997,88.507774,18-45-56,0.34203863,0.039334297,-0.30069315,81.0,0.0026674448,-0.006251188,-0.015617799
73.82187972776592,18.501917556859553,5.0299997,88.507774,18-45-57,-0.35713542,0.35938072,-0.55075514,82.0,-0.07430157,-0.064283386,0.01797979
73.82187972776592,18.501917556859553,5.0299997,88.507774,18-45-57,-0.18137819,0.26878834,0.7159549,82.0,-0.044980045,-0.052066084,0.043025266
73.82187972776592,18.501917556859553,5.0299997,88.507774,18-45-57,-0.44584692,0.52346325,-0.6135193,83.0,-0.014436782,-0.006251188,0.016758058
73.82187972776592,18.501917556859553,5.0299997,88.507774,18-45-57,0.028657138,0.2557087,-1.3277034,82.0,-0.026043221,0.008409577,-0.049215388
73.82187972776592,18.501917556859553,5.0299997,88.507774,18-45-57,0.21439722,0.8465519,0.28731328,82.0,-0.007717264,0.043228894,-0.041885003
73.82187972776592,18.501917556859553,5.0299997,88.507774,18-45-57,0.60859054,0.37808895,0.12314662,82.0,-0.011993322,0.038341973,-0.057156634
73.82187972776592,18.501917556859553,5.0299997,88.507774,18-45-57,0.73994166,0.3827505,-1.3161561,82.0,0.021604268,-0.022133686,-0.030278563
73.82186204195023,18.501963238231838,4.85,92.17306,18-45-57,-0.088272095,-0.18547058,-1.7994704,81.0,0.043595415,-0.0019751312,-0.07670432
73.82186204195023,18.501963238231838,4.85,92.17306,18-45-57,-0.11579704,0.6273985,1.0894513,82.0,0.008776098,-0.015414166,-0.0034004934
73.82186204195023,18.501963238231838,4.85,92.17306,18-45-57,0.41834012,0.8480749,0.84844977,84.0,-0.033373605,-0.045346566,0.027142767
73.82186204195023,18.501963238231838,4.85,92.17306,18-45-58,0.71975267,1.0936174,1.8931098,84.0,-0.03948226,0.010242173,0.018590655
73.82186204195023,18.501963238231838,4.85,92.17306,18-45-58,-0.3045469,0.09206772,-1.0989003,83.0,0.10468195,0.057889663,-0.044939328
73.82186204195023,18.501963238231838,4.85,92.17306,18-45-58,-0.09473783,-0.04079342,-0.4445629,83.0,-0.010160725,0.011463904,-0.06815221
73.82186204195023,18.501963238231838,4.85,92.17306,18-45-58,-0.79727924,0.0014858246,-0.021053076,84.0,0.027712919,0.044450626,-0.07853692
73.82186204195023,18.501963238231838,4.85,92.17306,18-45-58,-0.2189483,-0.084067345,-0.09166372,85.0,-0.03948226,0.04689409,-0.035165485
73.82186204195023,18.501963238231838,4.85,92.17306,18-45-58,-0.40075982,-0.024395943,0.0010741949,87.0,-0.037038796,0.029789861,-0.006454818
73.82186204195023,18.501963238231838,4.85,92.17306,18-45-58,-0.36669183,0.4720478,0.5555698,87.0,-0.07246898,0.009020443,0.031418826
73.82184125483036,18.502007662318647,5.1099997,96.23433,18-45-58,0.053744197,-0.31707287,-0.8023083,87.0,-0.07002552,0.042007167,0.014925465
73.82184125483036,18.502007662318647,5.1099997,96.23433,18-45-58,0.46709487,0.22592163,0.69380385,86.0,-0.12622511,0.018183421,0.007595081
73.82184125483036,18.502007662318647,5.1099997,96.23433,18-45-58,0.48832893,-0.023727417,0.5404702,85.0,-0.109731756,-0.016025033,0.034473155
73.82184125483036,18.502007662318647,5.1099997,96.23433,18-45-59,0.16589636,0.115828514,0.04814768,85.0,-0.02909755,0.06827437,-0.0046222247
73.82184125483036,18.502007662318647,5.1099997,96.23433,18-45-59,0.9528473,-0.56308365,0.01303792,85.0,-0.038260527,0.045672357,-0.009509146
73.82184125483036,18.502007662318647,5.1099997,96.23433,18-45-59,0.44644415,-0.5850601,0.5150204,85.0,0.010608693,-0.03190753,0.0424144
73.82184125483036,18.502007662318647,5.1099997,96.23433,18-45-59,-0.13548785,-0.35825157,1.6390297,85.0,-0.023599762,0.02856813,0.056464303
73.82184125483036,18.502007662318647,5.1099997,96.23433,18-45-59,1.5996077,0.022265434,0.5565304,86.0,-0.10728829,0.010242173,0.028364498
73.82184125483036,18.502007662318647,5.1099997,96.23433,18-45-59,1.2086537,0.0708704,0.58075213,83.0,-0.07857763,0.064609185,-0.004011359
73.82184125483036,18.502007662318647,5.1099997,96.23433,18-45-59,1.2838879,-0.024349213,1.2663714,81.0,-0.10362311,0.064609185,-0.008287415
73.8218305259943,18.502058582380414,5.62,99.82509,18-45-59,-1.0566797,-0.87005806,0.3889979,81.0,-0.007717264,0.099428505,-0.018672124
73.8218305259943,18.502058582380414,5.62,99.82509,18-45-59,0.7622471,-0.4265356,0.5768043,81.0,-0.05475389,0.0077987127,0.054631706
73.8218305259943,18.502058582380414,5.62,99.82509,18-45-59,-0.81232846,-0.22574997,-0.48317325,80.0,-0.032151874,-0.018468492,0.04119267
73.8218305259943,18.502058582380414,5.62,99.82509,18-46-00,-0.7422181,0.96027565,-0.6732869,80.0,0.027712919,0.01573996,0.04119267
73.8218305259943,18.502058582380414,5.62,99.82509,18-46-00,-1.1125298,0.30738926,-2.8939152,80.0,-0.010160725,-0.05267695,0.028975364
73.8218305259943,18.502058582380414,5.62,99.82509,18-46-00,-0.79340196,0.7143316,-1.1949575,80.0,-0.059029948,-0.05145522,0.05279911
73.8218305259943,18.502058582380414,5.62,99.82509,18-46-00,-0.20511612,-0.18400383,-0.2981763,78.0,-0.1195056,-0.086274534,0.09006189
73.8218305259943,18.502058582380414,5.62,99.82509,18-46-00,-0.9830873,2.197816,-1.0003148,78.0,-0.18303558,-0.050233487,0.057686035
73.8218305259943,18.502058582380414,5.62,99.82509,18-46-00,-1.0567248,0.8468342,0.17238235,80.0,-0.19403116,-0.01113811,0.07723372
73.8218305259943,18.502058582380414,5.62,99.82509,18-46-00,-0.13131511,0.8473282,-0.7334149,80.0,-0.011382456,0.0554462,-0.013785202
73.82181602530181,18.502115411683917,6.3799996,104.28962,18-46-00,1.0318434,0.57090664,-1.4937383,79.0,0.04420628,0.035898514,-0.037608948
73.82181602530181,18.502115411683917,6.3799996,104.28962,18-46-00,-0.20584166,-0.24055672,1.2037542,79.0,-0.03642793,0.0077987127,-0.032722026
73.82181602530181,18.502115411683917,6.3799996,104.28962,18-46-00,0.14366072,0.47636795,-0.029256344,81.0,-0.00832813,0.01696169,-0.06265442
73.82181602530181,18.502115411683917,6.3799996,104.28962,18-46-01,0.006685972,0.28393173,0.18836582,82.0,-0.10667743,-0.042292237,0.0045407563
73.82181602530181,18.502115411683917,6.3799996,104.28962,18-46-01,0.2737431,-0.108338356,-0.11780715,82.0,-0.028486684,-0.018468492,-0.008898281
73.82181602530181,18.502115411683917,6.3799996,104.28962,18-46-01,-0.11981404,0.42676735,-0.60957134,82.0,-0.010160725,-7.5340085E-4,-0.053491443
73.82181602530181,18.502115411683917,6.3799996,104.28962,18-46-01,0.5219702,0.12703323,-0.15801892,82.0,0.012441289,-0.039237913,0.0014864281
73.82181602530181,18.502115411683917,6.3799996,104.28962,18-46-01,-0.10228455,0.21942234,0.23870064,82.0,0.015495615,-0.059396464,0.06012949
73.82181602530181,18.502115411683917,6.3799996,104.28962,18-46-01,-0.37981224,-0.41622925,0.19191088,82.0,-9.977464E-4,0.034676783,0.04546873
73.82181602530181,18.502115411683917,6.3799996,104.28962,18-46-01,-0.67736506,0.36032486,0.8496984,80.0,-0.008938995,0.037120245,-0.0046222247
73.82179599255323,18.502175761386752,7.12,109.65828,18-46-01,-2.4163642,0.28761387,0.38668913,80.0,-0.024210628,0.17395405,-0.11030191
73.82179599255323,18.502175761386752,7.12,109.65828,18-46-01,-1.5654783,0.5740757,1.4083686,81.0,-0.037038796,0.07988081,-0.006454818
73.82179599255323,18.502175761386752,7.12,109.65828,18-46-01,1.2529742,-0.002295494,-0.9722308,80.0,0.04420628,0.025513805,-9.570308E-4
73.82179599255323,18.502175761386752,7.12,109.65828,18-46-02,0.666276,-0.39112186,-1.278555,79.0,0.11567752,-0.0031968616,0.03508402
73.82179599255323,18.502175761386752,7.12,109.65828,18-46-02,0.6100172,-0.7551718,0.12632097,79.0,0.070473485,0.03528765,-0.051658846
73.82179599255323,18.502175761386752,7.12,109.65828,18-46-02,-0.67234737,0.12954807,-0.21662493,79.0,0.0026674448,0.03650938,-0.026002508
73.82179599255323,18.502175761386752,7.12,109.65828,18-46-02,-0.15238917,0.2422409,1.6060776,78.0,-0.040093124,-0.0068620536,0.014925465
73.82179599255323,18.502175761386752,7.12,109.65828,18-46-02,-0.16443953,0.94568443,1.3853533,77.0,-0.038871393,-0.019690223,0.01797979
73.82179599255323,18.502175761386752,7.12,109.65828,18-46-02,-0.9263953,1.3756886,-0.4574392,77.0,0.058256183,-0.033740126,-0.006454818
73.82179599255323,18.502175761386752,7.12,109.65828,18-46-02,-1.4167306,0.24293327,-1.6349976,76.0,-0.0773559,-0.025798876,0.010649409
73.82178484462202,18.50224227178842,6.68,114.846565,18-46-02,-0.92281926,0.50176144,1.662548,76.0,0.020993402,0.013907365,-0.03333289
73.82178484462202,18.50224227178842,6.68,114.846565,18-46-02,-0.5005831,-0.10494137,0.7779079,77.0,-0.0046629375,-0.035572723,-0.02050472
73.82178484462202,18.50224227178842,6.68,114.846565,18-46-02,-1.1996194,-0.051351547,-0.3707528,77.0,-0.06941465,0.013907365,-0.021115584
73.82178484462202,18.50224227178842,6.68,114.846565,18-46-03,-0.43293062,0.090940475,1.3418527,77.0,-0.005273803,0.007187847,-0.016228663
73.82178484462202,18.50224227178842,6.68,114.846565,18-46-03,0.10821195,0.14554405,0.73008966,77.0,-0.07002552,-0.028853204,-0.011952605
73.82178484462202,18.50224227178842,6.68,114.846565,18-46-03,-0.53693503,0.50803185,-0.86716294,78.0,-0.016269378,-0.04595743,0.033251423
73.82178484462202,18.50224227178842,6.68,114.846565,18-46-03,-0.79282206,0.6040478,1.452502,77.0,0.11934271,0.0041335206,-0.03455462
73.82178484462202,18.50224227178842,6.68,114.846565,18-46-03,-0.94716775,0.22985077,-1.9058318,77.0,-0.03948226,0.025513805,-0.030278563
73.82178484462202,18.50224227178842,6.68,114.846565,18-46-03,-0.36192727,0.34388638,-1.2272824,78.0,-0.01077159,0.012074769,-0.0107308775
73.82178484462202,18.50224227178842,6.68,114.846565,18-46-03,0.009382166,0.011499405,-0.5857073,78.0,0.0509258,-0.035572723,0.011871137
73.82177277468145,18.502298137173057,5.5299997,119.614,18-46-03,-0.0059807524,0.18582916,0.88270533,78.0,0.050314933,-0.034961857,0.026531901
73.82177277468145,18.502298137173057,5.5299997,119.614,18-46-03,-0.27031973,-0.25748825,0.5635171,77.0,-0.07857763,-0.039237913,0.017368924
73.82177277468145,18.502298137173057,5.5299997,119.614,18-46-03,0.29311538,-0.49500751,0.27173162,77.0,-0.06513859,-0.033740126,-0.017450394
73.82177277468145,18.502298137173057,5.5299997,119.614,18-46-04,0.4017603,-0.34828186,0.26082975,77.0,-0.04436918,-0.057563867,0.0100385435
73.82177277468145,18.502298137173057,5.5299997,119.614,18-46-04,-0.7689701,-0.051324844,0.35577777,77.0,-0.040093124,-0.050844353,0.021034118
73.82177277468145,18.502298137173057,5.5299997,119.614,18-46-04,-0.2898371,0.66630363,0.42622757,78.0,-0.09629272,-0.03679445,0.0027081594
73.82177277468145,18.502298137173057,5.5299997,119.614,18-46-04,-0.0589391,0.17564678,-0.8130159,79.0,-0.06269513,-0.10826568,0.04669046
73.82177277468145,18.502298137173057,5.5299997,119.614,18-46-04,-0.25206295,0.5370054,-0.3174739,79.0,0.016717345,-0.0587856,0.02958623
73.82177277468145,18.502298137173057,5.5299997,119.614,18-46-04,-0.50011355,0.24346733,0.7942782,79.0,0.046649743,-0.01235984,-0.018672124
73.82177277468145,18.502298137173057,5.5299997,119.614,18-46-04,-0.50139517,-0.069885254,0.46756867,79.0,-0.014436782,0.013907365,-0.009509146
73.82176196202636,18.50234038196504,4.7,123.44813,18-46-04,0.115586214,0.09436703,0.08576144,80.0,-0.027875818,-0.015414166,0.019812386
73.82176196202636,18.50234038196504,4.7,123.44813,18-46-04,0.10915391,0.5599394,-0.27732173,80.0,0.03931936,-0.015414166,0.031418826
73.82176196202636,18.50234038196504,4.7,123.44813,18-46-04,-0.3699562,0.39690208,0.060496833,79.0,0.019771673,0.029789861,-0.041885003
73.82176196202636,18.50234038196504,4.7,123.44813,18-46-05,-0.029919326,-0.0748415,-0.7632085,79.0,-0.0046629375,0.023070343,-0.038219813
73.82176196202636,18.50234038196504,4.7,123.44813,18-46-05,-0.27600348,0.080262184,0.23626855,80.0,0.012441289,0.06338745,-0.028445968
73.82176196202636,18.50234038196504,4.7,123.44813,18-46-05,-0.5539532,0.07813549,0.19815694,83.0,-0.024210628,0.06888524,-0.0107308775
73.82176196202636,18.50234038196504,4.7,123.44813,18-46-05,0.36568657,-0.011816978,-0.34699038,83.0,-0.0492561,0.057889663,0.015536327
73.82176196202636,18.50234038196504,4.7,123.44813,18-46-05,0.35649312,0.10758591,-0.11440483,83.0,-0.0064955344,0.0041335206,0.07723372
73.82176196202636,18.50234038196504,4.7,123.44813,18-46-05,-0.15706271,-0.088599205,0.6171733,82.0,-0.04559091,0.045672357,0.03386229
73.82176196202636,18.50234038196504,4.7,123.44813,18-46-05,0.17581695,0.60801697,-0.22041152,82.0,0.03382157,0.04017457,0.008205947
73.82175953127444,18.502380698919296,4.2799997,126.541824,18-46-05,-0.34560978,0.5737705,-0.7593787,81.0,0.075971276,0.06705264,-0.008898281
73.82175953127444,18.502380698919296,4.2799997,126.541824,18-46-05,0.87381005,0.14781857,-0.11992575,81.0,0.07352781,0.060943987,-0.022948181
73.82175953127444,18.502380698919296,4.2799997,126.541824,18-46-05,-0.80985427,0.1110754,-0.16599458,81.0,-0.0046629375,0.100650236,0.013703734
73.82175953127444,18.502380698919296,4.2799997,126.541824,18-46-06,0.052574158,0.702199,1.1632231,81.0,0.11384492,0.0713287,0.005151622
73.82175953127444,18.502380698919296,4.2799997,126.541824,18-46-06,-0.3502401,0.3230486,0.4455799,80.0,0.06253224,0.027957264,0.044857863
73.82175953127444,18.502380698919296,4.2799997,126.541824,18-46-06,0.26055348,-0.3092394,-0.6821041,79.0,0.06375397,0.05422447,0.032029692
73.82175953127444,18.502380698919296,4.2799997,126.541824,18-46-06,-0.20103075,-0.50354767,-0.48050705,79.0,-0.022988897,0.045672357,0.021644983
73.82175953127444,18.502380698919296,4.2799997,126.541824,18-46-06,0.07300657,0.7626724,-1.9773664,78.0,-0.08774061,0.04383976,0.027142767
73.82175953127444,18.502380698919296,4.2799997,126.541824,18-46-06,-0.82169306,2.0619526,-3.383637,77.0,-0.0914058,0.039563704,0.0045407563
73.82175953127444,18.502380698919296,4.2799997,126.541824,18-46-06,1.0528753,0.4229231,0.50647336,77.0,0.09674069,0.023070343,-0.0046222247
73.82174989208579,18.502415106631815,3.87,129.83638,18-46-06,0.26803362,0.18681908,-0.7432802,75.0,0.08207993,0.037731107,0.005151622
73.82174989208579,18.502415106631815,3.87,129.83638,18-46-06,0.5640698,-0.0522089,0.8137869,73.0,0.0063326363,0.010242173,0.025921036
73.82174989208579,18.502415106631815,3.87,129.83638,18-46-06,-0.425471,1.1536818,0.06667566,72.0,0.07413868,-0.044124834,0.087618425
73.82174989208579,18.502415106631815,3.87,129.83638,18-46-07,2.028452,-0.014079094,-1.441629,68.0,0.17065538,-0.0447357,-0.006454818
73.82174989208579,18.502415106631815,3.87,129.83638,18-46-07,1.0063674,-0.6358166,0.30286944,66.0,0.013052154,-0.050844353,-0.012563471
73.82174989208579,18.502415106631815,3.87,129.83638,18-46-07,-1.0229193,-0.06828785,-1.1611786,67.0,0.11017973,-0.03312926,-0.06387615
73.82174989208579,18.502415106631815,3.87,129.83638,18-46-07,-0.94447327,-0.5887308,-2.167349,71.0,-0.013215051,-0.10887655,0.08884016
73.82174989208579,18.502415106631815,3.87,129.83638,18-46-07,-2.7479217,1.383172,-0.18064857,73.0,-0.07979936,-0.027020607,0.050966512
73.82174989208579,18.502415106631815,3.87,129.83638,18-46-07,-1.2654213,-0.42029285,-2.918663,74.0,-0.052310426,-0.08810713,0.1144965
73.82174989208579,18.502415106631815,3.87,129.83638,18-46-07,0.28798738,0.13740063,1.9287649,73.0,-0.3290324,0.002300925,0.03813834
73.82173765450716,18.502449598163366,4.22,133.37286,18-46-07,1.4327459,-0.4916525,2.08911,70.0,-0.17631607,-0.009305514,0.0045407563
73.82173765450716,18.502449598163366,4.22,133.37286,18-46-07,-0.22892785,-0.86367226,-1.8972685,69.0,-0.0211563,-0.015414166,-0.036387216
73.82173765450716,18.502449598163366,4.22,133.37286,18-46-07,0.2968014,-0.23177719,1.3055452,69.0,-0.15615752,0.09820677,-0.062043555
73.82173765450716,18.502449598163366,4.22,133.37286,18-46-08,0.14258522,-0.930748,-1.134373,69.0,-0.052310426,0.012074769,-0.11641057
73.82173765450716,18.502449598163366,4.22,133.37286,18-46-08,1.1671453,1.0009203,1.6495651,70.0,-0.122559935,-0.06672684,0.04974478
73.82173765450716,18.502449598163366,4.22,133.37286,18-46-08,0.8614255,-0.366786,-2.902184,71.0,0.10468195,-0.0025859969,-0.043106735
73.82173765450716,18.502449598163366,4.22,133.37286,18-46-08,0.49285892,0.468359,-0.89272606,70.0,0.11017973,0.05666793,-0.028445968
73.82173765450716,18.502449598163366,4.22,133.37286,18-46-08,0.21310207,0.7723532,0.65238875,70.0,-0.013825917,0.020016018,0.019812386
73.82173765450716,18.502449598163366,4.22,133.37286,18-46-08,1.2802176,0.67858696,0.14739352,68.0,0.0026674448,0.002300925,-0.036998082
73.82173765450716,18.502449598163366,4.22,133.37286,18-46-08,-0.46816784,0.2520771,-1.1418443,68.0,0.12545136,-0.006251188,-0.047993656
73.82171879522502,18.502489579841495,4.8599997,137.86191,18-46-08,-0.28435442,1.3767805,-2.64792,68.0,0.22929846,4.6832953E-4,-0.013785202
73.82171879522502,18.502489579841495,4.8599997,137.86191,18-46-08,-0.7471873,1.4004965,-2.9958704,70.0,0.22868758,0.04383976,-0.10480413
73.82171879522502,18.502489579841495,4.8599997,137.86191,18-46-08,0.9097873,-0.27926826,-1.4955789,71.0,0.12606223,0.023070343,-0.016228663
73.82171879522502,18.502489579841495,4.8599997,137.86191,18-46-09,0.22408539,-0.6378546,-0.32715118,70.0,0.07658214,0.047504954,-0.018061258
73.82171879522502,18.502489579841495,4.8599997,137.86191,18-46-09,0.34363747,-0.81929684,0.29303777,70.0,0.0368759,0.013907365,-0.037608948
73.82171879522502,18.502489579841495,4.8599997,137.86191,18-46-09,0.5859024,0.5414448,0.5173094,70.0,-0.0492561,0.006576982,2.6469678E-4
73.82171879522502,18.502489579841495,4.8599997,137.86191,18-46-09,-0.48723137,0.06826973,0.05065012,70.0,-0.054143023,-0.038627047,-0.0107308775
73.82171879522502,18.502489579841495,4.8599997,137.86191,18-46-09,-0.14549431,0.23074055,-1.2751181,71.0,-0.07674503,0.06033312,-0.07303913
73.82171879522502,18.502489579841495,4.8599997,137.86191,18-46-09,-0.35398495,0.45523453,0.37365437,72.0,-0.026654087,0.06522004,-0.02172645
73.82171879522502,18.502489579841495,4.8599997,137.86191,18-46-09,-0.14364392,0.68765926,1.5375723,73.0,-0.007106398,0.034676783,-9.570308E-4
73.82171007804573,18.502542008645833,5.9,142.58891,18-46-09,0.08421734,0.70435524,0.8867455,73.0,0.0069435015,0.018183421,-0.0058439523
73.82171007804573,18.502542008645833,5.9,142.58891,18-46-09,-0.45811516,0.48359585,1.1633453,72.0,0.013663019,0.01573996,-0.0058439523
73.82171007804573,18.502542008645833,5.9,142.58891,18-46-09,-0.5607914,0.028416634,0.18421245,71.0,0.005721771,0.008409577,-0.002178762
73.82171007804573,18.502542008645833,5.9,142.58891,18-46-10,0.28631964,0.48400116,-0.18529755,71.0,-0.013825917,-0.039237913,0.0063733496
73.82171007804573,18.502542008645833,5.9,142.58891,18-46-10,-0.21583024,0.042312622,0.23398396,70.0,0.008776098,-0.011748976,-0.02050472
73.82171007804573,18.502542008645833,5.9,142.58891,18-46-10,-0.56479216,0.35739613,-0.9013828,70.0,0.03565417,-0.0031968616,0.0063733496
73.82171007804573,18.502542008645833,5.9,142.58891,18-46-10,-0.35420367,0.16164684,-0.08061135,70.0,-0.011382456,0.038341973,-0.011341739
73.82171007804573,18.502542008645833,5.9,142.58891,18-46-10,-0.32455102,-0.12873459,0.069665164,70.0,0.061921373,-0.019079357,-0.043106735
73.82171007804573,18.502542008645833,5.9,142.58891,18-46-10,-0.30909216,0.15684128,0.8615637,70.0,0.024658594,0.054835334,-0.045550194
73.82171007804573,18.502542008645833,5.9,142.58891,18-46-10,-1.0013008,0.34309864,-0.65427995,69.0,0.07352781,0.0713287,-0.11152364
73.82169448770583,18.50259313825518,6.2999997,147.79422,18-46-10,-0.21635136,0.6747513,0.4387594,70.0,-0.0046629375,0.007187847,0.022866715
73.82169448770583,18.50259313825518,6.2999997,147.79422,18-46-10,-0.31115496,-0.07076645,-1.6819309,69.0,0.058867045,-0.016025033,0.028975364
73.82169448770583,18.50259313825518,6.2999997,147.79422,18-46-10,-0.0025556684,0.5020914,-0.21435319,68.0,0.024047729,-0.010527245,-0.03944154
73.82169448770583,18.50259313825518,6.2999997,147.79422,18-46-11,-0.67248493,0.26838303,-1.696979,68.0,0.17859665,0.035898514,-0.07426086
73.82169448770583,18.50259313825518,6.2999997,147.79422,18-46-11,0.42189348,-0.5055733,-2.0983305,68.0,-0.038260527,-0.009305514,0.014314599
73.82169448770583,18.50259313825518,6.2999997,147.79422,18-46-11,0.5420414,-0.51780224,1.2774394,69.0,-0.23373741,-0.050844353,0.07845545
73.82169448770583,18.50259313825518,6.2999997,147.79422,18-46-11,-0.085402966,-0.036379814,1.0737308,68.0,-0.18608992,0.02490294,0.059518624
73.82169448770583,18.50259313825518,6.2999997,147.79422,18-46-11,-0.38707772,-0.27500248,-1.1386135,68.0,-0.06391686,0.032844186,0.027142767
73.82169448770583,18.50259313825518,6.2999997,147.79422,18-46-11,-8.174479E-4,0.04751396,-0.48915094,69.0,-0.035206202,-0.00869465,-0.0070656836
73.82169448770583,18.50259313825518,6.2999997,147.79422,18-46-11,0.49269247,0.21908379,-0.8338044,68.0,0.005721771,-0.06489425,0.005762484
73.82167747244239,18.50265059620142,6.19,153.66713,18-46-11,0.6585975,0.3715229,-0.040531635,67.0,0.13156001,-0.07955501,-0.009509146
73.82167747244239,18.50265059620142,6.19,153.66713,18-46-11,-0.39868084,0.6920872,-1.4157841,66.0,-0.0211563,-0.011748976,-0.022337316
73.82167747244239,18.50265059620142,6.19,153.66713,18-46-11,0.11455333,0.31861115,0.64150316,66.0,-0.027875818,-0.03190753,-0.04616106
73.82167747244239,18.50265059620142,6.19,153.66713,18-46-12,-0.053266644,-0.15552425,0.17753446,67.0,-0.0510887,-0.028853204,-0.009509146
73.82167747244239,18.50265059620142,6.19,153.66713,18-46-12,0.46340144,-0.054851532,2.8106906,67.0,0.09429724,0.022459477,-0.062043555
73.82167747244239,18.50265059620142,6.19,153.66713,18-46-12,-0.42545938,-0.70016766,-1.2478744,67.0,-0.0211563,-0.02518801,-0.033943757
73.82167747244239,18.50265059620142,6.19,153.66713,18-46-12,0.27731442,0.43388176,-0.09917006,68.0,0.048482336,-0.020301089,-0.029667698
73.82167747244239,18.50265059620142,6.19,153.66713,18-46-12,0.9006615,0.76738167,0.49093777,69.0,0.061921373,-0.04840089,2.6469678E-4
73.82167747244239,18.50265059620142,6.19,153.66713,18-46-12,0.23369211,1.1332245,1.0013776,70.0,0.06986263,-0.10215703,0.06135122
73.82167747244239,18.50265059620142,6.19,153.66713,18-46-12,-0.94604015,-0.38632107,-1.0365381,70.0,0.00205658,-0.06794857,0.055853438
73.82165987044573,18.50270977243781,6.6099997,159.78122,18-46-12,-0.6412177,-0.46719837,-0.6686151,70.0,-0.022988897,0.066441774,-0.033943757
73.82165987044573,18.50270977243781,6.6099997,159.78122,18-46-12,0.5246859,-0.4181223,0.92206264,70.0,-0.17692694,0.029789861,0.011871137
73.82165987044573,18.50270977243781,6.6099997,159.78122,18-46-13,0.67125595,0.07067585,1.5945745,70.0,-0.011993322,-0.05328781,0.027142767
73.82165987044573,18.50270977243781,6.6099997,159.78122,18-46-13,0.18516237,-0.14886189,-1.8773973,70.0,-0.071858115,-0.099102706,0.04546873
73.82165987044573,18.50270977243781,6.6099997,159.78122,18-46-13,0.8781055,0.7877197,2.6261563,71.0,-0.108510025,-0.04351397,0.07540113
73.82165987044573,18.50270977243781,6.6099997,159.78122,18-46-13,-0.61547416,0.533885,-2.7628076,70.0,0.1529403,0.049337547,-0.0840347
73.82165987044573,18.50270977243781,6.6099997,159.78122,18-46-13,-0.74969596,-0.3575983,0.95020854,70.0,0.018549941,0.006576982,-0.037608948
73.82165987044573,18.50270977243781,6.6099997,159.78122,18-46-13,0.23618177,0.18915081,-0.066532254,71.0,-0.0755233,0.0413963,-0.008898281
73.82165987044573,18.50270977243781,6.6099997,159.78122,18-46-13,0.045875177,-0.18143559,-1.3882293,71.0,-0.019934569,-0.049011756,0.02347758
73.82165987044573,18.50270977243781,6.6099997,159.78122,18-46-13,0.28276926,0.368865,-1.0993214,71.0,0.0826908,-0.0013642665,-0.008287415
73.82163531146944,18.502772049978375,6.69,166.68724,18-46-13,-0.030174911,0.33801746,-0.12573804,71.0,0.030767247,0.05666793,-0.021115584
73.82163531146944,18.502772049978375,6.69,166.68724,18-46-13,-0.45065397,0.17858887,-0.49611145,71.0,0.09979502,0.037731107,-0.048604522
73.82163531146944,18.502772049978375,6.69,166.68724,18-46-14,0.9420758,0.11455345,0.2556467,71.0,-0.032151874,0.01451823,0.003319025
73.82163531146944,18.502772049978375,6.69,166.68724,18-46-14,1.5425044,0.32997417,3.6832075,71.0,0.19386826,-0.01113811,-0.07426086
73.82163531146944,18.502772049978375,6.69,166.68724,18-46-14,-0.44030917,-0.15261078,-2.3067138,71.0,-0.035817068,-0.01113811,0.011260275
73.82163531146944,18.502772049978375,6.69,166.68724,18-46-14,-0.44027394,-0.047175407,-1.5999122,71.0,0.0063326363,-0.0031968616,0.01797979
73.82163531146944,18.502772049978375,6.69,166.68724,18-46-14,0.40738866,0.25110054,-0.33745843,72.0,0.029545516,-0.027020607,-0.0027896278
73.82163531146944,18.502772049978375,6.69,166.68724,18-46-14,0.16902341,0.5463686,-0.5597443,72.0,0.13583606,-0.04840089,0.043636132
73.82163531146944,18.502772049978375,6.69,166.68724,18-46-14,-0.37896997,0.39992046,0.9861317,71.0,0.1511077,-0.045346566,-3.4616515E-4
73.82163531146944,18.502772049978375,6.69,166.68724,18-46-14,-0.18240744,1.065136,0.6382917,71.0,0.118120976,0.037120245,-0.040663272
73.82161376997828,18.502836422994733,6.8799996,173.60649,18-46-14,-2.024199,0.8547163,-1.5982293,71.0,0.1333926,0.1256957,-0.008898281
73.82161376997828,18.502836422994733,6.8799996,173.60649,18-46-14,-0.9075886,-0.7601013,-2.293198,72.0,0.0649757,0.089043796,-0.0577675
73.82161376997828,18.502836422994733,6.8799996,173.60649,18-46-15,1.0674131,-0.5178442,1.4259251,73.0,0.04542801,0.049948413,-0.0058439523
73.82161376997828,18.502836422994733,6.8799996,173.60649,18-46-15,0.22010364,-0.372653,1.6614425,74.0,0.013663019,-0.05328781,0.030197095
73.82161376997828,18.502836422994733,6.8799996,173.60649,18-46-15,-0.8351663,0.30127048,0.11781067,76.0,-0.086518876,-0.0068620536,0.06745988
73.82161376997828,18.502836422994733,6.8799996,173.60649,18-46-15,-1.0126814,1.1548967,-0.17433304,77.0,-0.09018407,0.006576982,0.043636132
73.82161376997828,18.502836422994733,6.8799996,173.60649,18-46-15,-0.009624369,0.6402626,-1.2489336,76.0,-0.060862545,-0.0050294576,0.0027081594
73.82161376997828,18.502836422994733,6.8799996,173.60649,18-46-15,0.30145928,0.84073734,-0.6719972,76.0,0.01610648,0.061554853,-0.032722026
73.82161376997828,18.502836422994733,6.8799996,173.60649,18-46-15,-0.12296696,0.13447666,-0.23531088,75.0,-0.001608612,0.047504954,-0.113967106
73.82161376997828,18.502836422994733,6.8799996,173.60649,18-46-15,0.10280359,0.7128668,0.56109524,76.0,0.07230608,0.027957264,-0.02172645
73.82159482687712,18.502899915911257,7.0299997,180.32298,18-46-15,0.23993206,0.082592964,-0.054268807,76.0,0.04176282,0.021237748,-0.03333289
73.82159482687712,18.502899915911257,7.0299997,180.32298,18-46-15,0.74590176,0.1436348,0.7134429,76.0,0.10284935,0.047504954,-0.03577635
73.82159482687712,18.502899915911257,7.0299997,180.32298,18-46-16,-1.1556572,4.373927,1.9797778,76.0,0.014884749,0.25153396,-0.06876308
73.82159482687712,18.502899915911257,7.0299997,180.32298,18-46-16,-3.2598615,-0.8316841,-0.7458656,80.0,0.31543046,0.118365325,0.14809409
73.82159482687712,18.502899915911257,7.0299997,180.32298,18-46-16,-4.47173,-0.953475,1.5452329,78.0,0.11140146,-0.06550512,0.1566462
73.82159482687712,18.502899915911257,7.0299997,180.32298,18-46-16,-2.8959491,-0.15703392,0.5451982,76.0,-0.015658513,-0.055731274,0.09555969
73.82159482687712,18.502899915911257,7.0299997,180.32298,18-46-16,0.17468767,0.48754406,-7.706841,75.0,-0.8543765,-0.09238318,-0.013174336
73.82159482687712,18.502899915911257,7.0299997,180.32298,18-46-16,1.0529779,1.4019251,-3.0410252,77.0,-0.15249233,-0.5034955,0.32035807
73.82159482687712,18.502899915911257,7.0299997,180.32298,18-46-16,2.6666298,3.463808,-7.640303,77.0,0.19997692,-0.050233487,0.050966512
73.82159482687712,18.502899915911257,7.0299997,180.32298,18-46-16,0.55872583,0.8474817,-1.4772358,76.0,0.12422963,0.05911139,-0.112745374
73.82157856598496,18.50295787677169,6.42,186.42625,18-46-16,-1.8607385,-1.3751125,-0.43792418,75.0,0.31054354,0.13363695,-0.14817555
73.82157856598496,18.50295787677169,6.42,186.42625,18-46-16,-0.14900514,-1.3422308,3.6786807,75.0,-0.2514525,-0.09238318,-0.016839528
73.82157856598496,18.50295787677169,6.42,186.42625,18-46-17,-0.3720108,-1.2678127,1.822704,75.0,-0.44143158,0.052391876,-0.015617799
73.82157856598496,18.50295787677169,6.42,186.42625,18-46-17,-1.0354061,1.4476585,-2.3669972,76.0,0.16943365,-0.055731274,0.012482002
73.82157856598496,18.50295787677169,6.42,186.42625,18-46-17,0.15805545,0.8247099,-0.33391392,76.0,0.012441289,-0.05512041,0.021034118
73.82157856598496,18.50295787677169,6.42,186.42625,18-46-17,1.9096724,0.7490635,-0.89768577,76.0,0.118120976,-0.06855944,0.05279911
73.82157856598496,18.50295787677169,6.42,186.42625,18-46-17,0.9967431,-0.945734,3.6545057,74.0,-0.09873618,-0.08444194,-0.0107308775
73.82157856598496,18.50295787677169,6.42,186.42625,18-46-17,0.65100944,-1.5115318,1.4822823,74.0,-0.16959655,-0.08077674,0.051577378
73.82157856598496,18.50295787677169,6.42,186.42625,18-46-17,0.012361899,-1.4235821,0.9160711,75.0,-0.16715309,-0.060618196,0.06623815
73.82157856598496,18.50295787677169,6.42,186.42625,18-46-17,-0.95509154,0.74221516,-0.09710056,76.0,-0.14821626,-0.004418593,0.0027081594
73.82156079635024,18.503011520951986,6.49,192.28012,18-46-17,-0.8972377,1.7675524,-0.055285275,77.0,-0.035206202,0.015129095,-0.0027896278
73.82156079635024,18.503011520951986,6.49,192.28012,18-46-17,-0.5658049,0.9201031,-0.57247984,77.0,0.052758396,0.031011593,-0.07059567
73.82156079635024,18.503011520951986,6.49,192.28012,18-46-18,0.087358914,0.91350555,-0.75781566,77.0,0.058256183,0.03528765,-0.06693048
73.82156079635024,18.503011520951986,6.49,192.28012,18-46-18,0.5944803,0.6873045,-0.31716007,77.0,0.16454674,0.04017457,-0.037608948
73.82156079635024,18.503011520951986,6.49,192.28012,18-46-18,0.3234656,-0.450572,1.6844715,76.0,0.1651576,0.032844186,-0.051658846
73.82156079635024,18.503011520951986,6.49,192.28012,18-46-18,0.44382894,-1.2451515,1.2265975,76.0,0.10101675,-0.033740126,0.0039298907
73.82156079635024,18.503011520951986,6.49,192.28012,18-46-18,0.5257917,-1.4029999,1.8882138,75.0,-0.04070399,-0.0050294576,-0.004011359
73.82156079635024,18.503011520951986,6.49,192.28012,18-46-18,0.44930762,0.07371235,-0.14100549,75.0,-0.23984605,-0.030074935,0.03386229
73.82156079635024,18.503011520951986,6.49,192.28012,18-46-18,-0.3930832,0.0363245,-1.698182,74.0,-0.19830722,-0.017857626,0.082731515
73.82156079635024,18.503011520951986,6.49,192.28012,18-46-18,-0.76269025,1.3769684,-0.9382673,74.0,-0.08041023,-0.017857626,0.072957665
73.82154495455325,18.503063027746975,5.66,197.84546,18-46-18,-0.54008555,0.7345371,-1.3266557,74.0,-0.02909755,0.037731107,0.030197095
73.82154495455325,18.503063027746975,5.66,197.84546,18-46-18,-0.75265217,1.1663218,-1.057771,73.0,0.074749544,0.023070343,-0.02172645
73.82154495455325,18.503063027746975,5.66,197.84546,18-46-19,0.13551083,1.1081657,-0.10328883,73.0,0.048482336,-0.0074729184,-0.04249587
73.82154495455325,18.503063027746975,5.66,197.84546,18-46-19,0.17474991,0.49168205,-0.22511667,73.0,0.028323784,0.02490294,-0.027224237
73.82154495455325,18.503063027746975,5.66,197.84546,18-46-19,0.9274142,0.13718796,1.1761246,72.0,0.042373687,-0.011748976,-0.092586815
73.82154495455325,18.503063027746975,5.66,197.84546,18-46-19,0.64074755,-0.40311337,-0.04670477,73.0,0.058256183,-0.004418593,-0.02172645
73.82154495455325,18.503063027746975,5.66,197.84546,18-46-19,-0.04820925,-0.549345,0.3621611,73.0,0.08696685,0.020016018,2.6469678E-4
73.82154495455325,18.503063027746975,5.66,197.84546,18-46-19,-0.013433605,-0.15740585,0.45653313,73.0,0.025880326,-0.039237913,-0.016228663
73.82154495455325,18.503063027746975,5.66,197.84546,18-46-19,-0.09379226,0.054419518,0.28785145,73.0,0.019160807,-0.030685797,0.0063733496
73.82154495455325,18.503063027746975,5.66,197.84546,18-46-19,-0.24805933,-0.13398933,0.1027168,73.0,0.004500041,-0.00869465,-0.009509146
73.82152902893722,18.503111894242465,5.69,203.20084,18-46-19,0.11264104,-0.59833527,0.31289646,73.0,-0.071858115,-0.033740126,0.03386229
73.82152902893722,18.503111894242465,5.69,203.20084,18-46-19,-0.20183247,-0.1328001,-0.07163319,74.0,-0.07857763,-0.018468492,0.021644983
73.82152902893722,18.503111894242465,5.69,203.20084,18-46-20,0.1310558,0.39678383,-0.12283304,74.0,-0.059640814,0.012074769,-0.059600096
73.82152902893722,18.503111894242465,5.69,203.20084,18-46-20,-0.27262765,-0.030098915,-0.717229,74.0,-0.048645236,-0.025798876,-0.018672124
73.82152902893722,18.503111894242465,5.69,203.20084,18-46-20,-0.4143396,-0.008138657,-0.6583279,75.0,-0.050477833,0.0029117905,-3.4616515E-4
73.82152902893722,18.503111894242465,5.69,203.20084,18-46-20,-0.36438298,0.1380539,0.04761284,76.0,0.02526946,0.01696169,-0.0058439523
73.82152902893722,18.503111894242465,5.69,203.20084,18-46-20,-0.026271045,0.19577694,-0.4218622,76.0,0.063143104,-0.0056403233,-0.02050472
73.82152902893722,18.503111894242465,5.69,203.20084,18-46-20,0.115263104,0.2552662,0.2894379,77.0,0.031378113,0.007187847,-0.0015678965
73.82152902893722,18.503111894242465,5.69,203.20084,18-46-20,0.42965278,0.103180885,0.92590225,77.0,0.052758396,-0.027631473,0.011871137
73.82152902893722,18.503111894242465,5.69,203.20084,18-46-20,0.12206651,0.40108585,0.88318413,77.0,0.00205658,-0.0447357,0.012482002
73.82151804864407,18.503156695514917,5.45,207.90295,18-46-20,0.17338848,-0.10002327,-0.8509275,77.0,0.06253224,-0.0031968616,0.0045407563
73.82151804864407,18.503156695514917,5.45,207.90295,18-46-20,-0.2602988,-0.20426178,0.12979078,77.0,-0.11034262,0.029178996,-0.03211116
73.82151804864407,18.503156695514917,5.45,207.90295,18-46-21,0.50734776,-0.024374962,-0.7045123,77.0,-0.093849264,0.018183421,-0.041885003
73.82151804864407,18.503156695514917,5.45,207.90295,18-46-21,0.80961,-0.17638111,-0.38083917,77.0,-0.061473403,-0.0013642665,-0.03088943
73.82151804864407,18.503156695514917,5.45,207.90295,18-46-21,0.61428154,0.22769356,-0.14148311,77.0,-0.059640814,0.029178996,-0.028445968
73.82151804864407,18.503156695514917,5.45,207.90295,18-46-21,0.24890146,-0.29337788,-1.0657171,77.0,-0.071858115,4.6832953E-4,0.012482002
73.82151804864407,18.503156695514917,5.45,207.90295,18-46-21,-0.27963302,0.92134666,-0.3486056,77.0,0.005721771,-0.018468492,0.014925465
73.82151804864407,18.503156695514917,5.45,207.90295,18-46-21,-0.22310843,0.66362095,0.8515883,77.0,0.0368759,-0.042292237,0.022866715
73.82151804864407,18.503156695514917,5.45,207.90295,18-46-21,0.5784014,0.8863592,-0.072001964,76.0,0.046649743,-0.0148033025,-0.052269712
73.82151804864407,18.503156695514917,5.45,207.90295,18-46-21,0.028734565,0.3340521,0.012973517,76.0,-0.032151874,0.034065917,-0.046771925
73.82151662372053,18.503201161511242,4.67,212.01607,18-46-21,0.17870976,0.08760166,-0.20711213,76.0,0.02649119,-0.06672684,0.03080796
73.82151662372053,18.503201161511242,4.67,212.01607,18-46-21,0.4246883,-0.5209074,0.64427876,76.0,0.09979502,0.04506149,-0.04249587
73.82151662372053,18.503201161511242,4.67,212.01607,18-46-22,-0.34383675,-0.08849621,0.3649478,76.0,0.09735156,0.04872668,-0.080980375
73.82151662372053,18.503201161511242,4.67,212.01607,18-46-22,0.4678578,-0.2926607,0.050127268,76.0,0.0026674448,0.010242173,-0.011341739
73.82151662372053,18.503201161511242,4.67,212.01607,18-46-22,-0.39282507,-0.45651817,1.8523226,76.0,-0.059029948,0.016350826,-0.012563471
73.82151662372053,18.503201161511242,4.67,212.01607,18-46-22,0.7961464,-0.73018456,-0.96179104,76.0,-0.086518876,-0.045346566,0.010649409
73.82151662372053,18.503201161511242,4.67,212.01607,18-46-22,0.85503924,-0.36345768,-0.50951964,76.0,0.058867045,-0.071613766,0.034473155
73.82151662372053,18.503201161511242,4.67,212.01607,18-46-22,0.105791,0.1895113,2.4785628,76.0,-0.1476054,-0.004418593,0.003319025
73.82151662372053,18.503201161511242,4.67,212.01607,18-46-22,-0.7241724,0.1268835,-0.8330839,77.0,0.13766867,-0.030685797,0.0020972937
73.82151662372053,18.503201161511242,4.67,212.01607,18-46-22,-0.31323212,-0.15719509,-0.64887947,77.0,-0.038871393,-0.04595743,0.022866715
73.8215199764818,18.503238544799387,4.65,215.23106,18-46-22,-0.76272154,0.64446354,0.31745476,77.0,0.04726061,-0.056953,-0.0076765493
73.8215199764818,18.503238544799387,4.65,215.23106,18-46-22,-0.31275004,0.6394863,-1.3693041,77.0,-0.08102109,-0.019690223,0.013703734
73.8215199764818,18.503238544799387,4.65,215.23106,18-46-23,-0.34802425,0.2590971,1.6495936,77.0,-0.038871393,-7.5340085E-4,-0.0015678965
73.8215199764818,18.503238544799387,4.65,215.23106,18-46-23,-0.47556,0.7751913,-1.8923893,78.0,0.103460215,0.031011593,-0.06876308
73.8215199764818,18.503238544799387,4.65,215.23106,18-46-23,-0.3829736,0.15432644,-0.5053397,78.0,0.15355116,0.032844186,-0.038830675
73.8215199764818,18.503238544799387,4.65,215.23106,18-46-23,1.0806316,0.15541935,-0.12169057,79.0,-0.1195056,-0.008083784,0.044857863
73.8215199764818,18.503238544799387,4.65,215.23106,18-46-23,-0.725299,-0.012498856,-0.14347965,80.0,0.10407108,-0.015414166,0.0045407563
73.8215199764818,18.503238544799387,4.65,215.23106,18-46-23,0.5852476,1.3814697,-0.17564344,80.0,-0.1372207,0.022459477,0.025921036
73.8215199764818,18.503238544799387,4.65,215.23106,18-46-23,-0.3745728,0.7852087,-3.3478465,81.0,0.23785056,-0.025798876,0.06379469
73.82151327095926,18.50327890366316,4.72,219.33781,18-46-23,0.3509886,-0.40156078,-2.1355934,79.0,-0.05475389,0.021237748,-0.050437115
73.82151327095926,18.50327890366316,4.72,219.33781,18-46-23,1.4735867,-0.20963287,-1.0889084,78.0,-0.04559091,0.026735537,-0.02172645
73.82151327095926,18.50327890366316,4.72,219.33781,18-46-23,0.5751746,0.10615635,1.4336576,77.0,0.046649743,-0.0038077272,0.04669046
73.82151327095926,18.50327890366316,4.72,219.33781,18-46-24,0.4409104,1.09655,-0.12151438,77.0,-0.083464555,0.037731107,0.0020972937
73.82151327095926,18.50327890366316,4.72,219.33781,18-46-24,0.5549007,0.09815884,-0.33750272,76.0,0.0490932,0.030400727,0.005762484
73.82151327095926,18.50327890366316,4.72,219.33781,18-46-24,-1.10266,-0.8088198,-0.17115024,77.0,0.09307551,0.05666793,-0.014396068
73.82151327095926,18.50327890366316,4.72,219.33781,18-46-24,-0.5069136,-0.18946457,-0.7313032,77.0,0.0032783104,0.0029117905,0.04119267
73.82151327095926,18.50327890366316,4.72,219.33781,18-46-24,-0.009545907,0.62522507,0.4143967,75.0,-0.021767166,0.0047443863,0.03080796
73.82151327095926,18.50327890366316,4.72,219.33781,18-46-24,-0.4219408,0.10762119,-1.0824624,75.0,-0.019323703,0.012685634,-0.016839528
73.82151327095926,18.50327890366316,4.72,219.33781,18-46-24,-0.4159506,0.47960567,-0.5346135,74.0,-0.04803437,0.012685634,-0.02172645
73.82151327095926,18.50327890366316,4.72,219.33781,18-46-24,-0.5595504,0.66930485,0.9543375,74.0,-0.07979936,0.05178101,-0.0070656836
73.82149877026677,18.50332278292626,5.21,224.23668,18-46-24,-0.47325736,1.0588303,-0.48919186,74.0,0.018549941,-0.008083784,0.013703734
73.82149877026677,18.50332278292626,5.21,224.23668,18-46-24,-0.0638973,0.6946707,-0.0699566,74.0,0.025880326,-0.00869465,0.0063733496
73.82149877026677,18.50332278292626,5.21,224.23668,18-46-25,-0.2375671,0.5781355,-0.12178108,73.0,0.0063326363,0.04017457,-0.057156634
73.82149877026677,18.50332278292626,5.21,224.23668,18-46-25,0.061994463,0.63722515,-0.53233063,72.0,0.06375397,-0.0025859969,-0.024780776
73.82149877026677,18.50332278292626,5.21,224.23668,18-46-25,0.56394136,-0.2765627,-0.42833436,73.0,0.16576847,-0.032518394,-0.02172645
73.82149877026677,18.50332278292626,5.21,224.23668,18-46-25,0.5630527,-0.4230156,-0.6614219,72.0,0.08207993,0.047504954,-0.026002508
73.82149877026677,18.50332278292626,5.21,224.23668,18-46-25,1.5646032,0.52830124,0.24811989,70.0,0.09124291,0.025513805,-0.018061258
73.82149877026677,18.50332278292626,5.21,224.23668,18-46-25,0.5880995,0.20181179,-0.80587006,68.0,0.08391252,-0.047790024,-0.029056834
73.82149877026677,18.50332278292626,5.21,224.23668,18-46-25,1.1956235,-0.99575615,-2.4833868,71.0,0.1388904,-0.099102706,0.039360072
73.82149877026677,18.50332278292626,5.21,224.23668,18-46-25,1.3342801,0.18348885,1.4444343,74.0,0.12056444,-0.088718,0.07356852
73.82148611359298,18.503368757665157,4.83,229.23352,18-46-25,-0.6914856,-0.90611935,-0.2615466,71.0,0.030767247,-0.010527245,-0.019893855
73.82148611359298,18.503368757665157,4.83,229.23352,18-46-25,-0.33084407,-0.544034,2.0926037,70.0,-0.001608612,0.032233324,-0.067541346
73.82148611359298,18.503368757665157,4.83,229.23352,18-46-26,3.0290375,-1.4081392,4.1441255,68.0,0.11017973,-0.0129707055,-0.19154699
73.82148611359298,18.503368757665157,4.83,229.23352,18-46-26,-0.022734106,-0.7110348,-1.7914898,69.0,-0.05292129,-0.116817795,0.03508402
73.82148611359298,18.503368757665157,4.83,229.23352,18-46-26,-0.6927811,-1.227396,-0.11270869,71.0,-0.17326175,-0.112541735,0.055853438
73.82148611359298,18.503368757665157,4.83,229.23352,18-46-26,-0.51754284,1.6797647,1.284068,74.0,0.079025604,-0.07650069,0.11571823
73.82148611359298,18.503368757665157,4.83,229.23352,18-46-26,-0.08260932,-0.23326302,-0.67819834,73.0,0.07841474,-0.070392035,0.063183814
73.82148611359298,18.503368757665157,4.83,229.23352,18-46-26,0.66315496,2.3453712,-3.5228581,70.0,0.05581272,-7.5340085E-4,-0.0437176
73.82148611359298,18.503368757665157,4.83,229.23352,18-46-26,0.41360506,2.2300196,-2.5526698,69.0,0.13033828,-0.050233487,-0.0015678965
73.82148611359298,18.503368757665157,4.83,229.23352,18-46-26,1.4333175,1.9743938,-0.26658058,70.0,0.25251132,-0.06367252,0.057686035
73.82147370837629,18.503414229489863,5.14,234.1807,18-46-26,1.2450423,-1.9058905,0.21131086,68.0,0.19997692,0.08843293,-0.08281298
73.82147370837629,18.503414229489863,5.14,234.1807,18-46-26,2.3308077,-1.0543222,3.0561552,68.0,-0.011993322,0.027346399,0.03691661
73.82147370837629,18.503414229489863,5.14,234.1807,18-46-27,0.39748028,0.044257164,1.2147752,68.0,-3.8688164E-4,-0.02152282,0.06807074
73.82147370837629,18.503414229489863,5.14,234.1807,18-46-27,0.21021363,-0.33868217,1.1856469,68.0,-0.12927945,-0.053898677,0.05890776
73.82147370837629,18.503414229489863,5.14,234.1807,18-46-27,1.1948636,-1.3188667,4.6991067,67.0,-0.08835147,0.035898514,-0.0052330904
73.82147370837629,18.503414229489863,5.14,234.1807,18-46-27,0.19532916,-1.0737171,5.5829096,67.0,-0.11645128,-0.03435099,0.01797979
73.82147370837629,18.503414229489863,5.14,234.1807,18-46-27,-1.0688674,0.9874754,-2.7254753,67.0,-0.12378165,0.04383976,-0.053491443
73.82147370837629,18.503414229489863,5.14,234.1807,18-46-27,-0.41963077,1.6315298,-2.431422,67.0,-0.011382456,0.18006271,-0.13412565
73.82147370837629,18.503414229489863,5.14,234.1807,18-46-27,-0.48226377,0.48207855,-1.6292442,67.0,-0.114007816,0.08293514,-0.22514458
73.82146490737796,18.503467496484518,5.94,239.67024,18-46-27,-1.473229,1.2860718,-0.061548114,68.0,0.04542801,0.0053552515,-0.05532404
73.82146490737796,18.503467496484518,5.94,239.67024,18-46-27,-1.2127886,1.7742243,0.40881407,74.0,0.14988597,-0.009305514,-0.043106735
73.82146490737796,18.503467496484518,5.94,239.67024,18-46-27,0.52638495,-0.14543533,1.6011417,75.0,0.10834713,-0.032518394,-0.016228663
73.82146490737796,18.503467496484518,5.94,239.67024,18-46-28,1.5054821,-1.4992733,2.1596713,74.0,-0.01077159,0.009020443,-0.026613371
73.82146490737796,18.503467496484518,5.94,239.67024,18-46-28,-0.48210123,-1.0300627,0.61351943,73.0,0.046038877,-0.10032443,-0.011952605
73.82146490737796,18.503467496484518,5.94,239.67024,18-46-28,-1.8726912,-0.08578682,-1.1385942,73.0,-0.10667743,0.0132965,-3.4616515E-4
73.82146490737796,18.503467496484518,5.94,239.67024,18-46-28,-0.17697854,0.47514343,-1.0555912,77.0,-0.1195056,-0.016025033,0.09555969
73.82146490737796,18.503467496484518,5.94,239.67024,18-46-28,0.24726227,0.51898575,-0.20733362,77.0,-0.13783155,0.066441774,0.040581804
73.82146490737796,18.503467496484518,5.94,239.67024,18-46-28,-1.1062431,0.68891144,-0.4732983,77.0,-0.10789916,-0.013581571,0.107776985
73.82146490737796,18.503467496484518,5.94,239.67024,18-46-28,-0.42698506,0.6973963,-0.27257442,75.0,0.074749544,0.13363695,-0.02050472
73.82146490737796,18.503467496484518,5.94,239.67024,18-46-28,1.3192229,-0.030982018,-1.5535035,71.0,0.08452339,0.101261094,-0.102971524
73.82145359180868,18.50351615343243,5.79,244.88419,18-46-28,0.17169112,-0.9556484,-1.3321112,70.0,-0.028486684,0.048115816,-0.030278563
73.82145359180868,18.50351615343243,5.79,244.88419,18-46-28,-0.8867649,0.2898798,-1.0913107,70.0,-0.16593136,0.07560476,-0.018061258
73.82145359180868,18.50351615343243,5.79,244.88419,18-46-29,2.2830565,0.37180996,4.265812,71.0,0.13400348,0.12203052,-0.108469315
73.82145359180868,18.50351615343243,5.79,244.88419,18-46-29,2.9849458,0.17055035,3.4936,72.0,0.19631173,0.06522004,-0.10602586
73.82145359180868,18.50351615343243,5.79,244.88419,18-46-29,2.280413,0.2709589,2.4556403,71.0,0.1370578,-0.061839927,0.008816812
73.82145359180868,18.50351615343243,5.79,244.88419,18-46-29,2.6452904,-1.1950674,1.1225258,69.0,0.12361877,-0.06489425,-0.067541346
73.82145359180868,18.50351615343243,5.79,244.88419,18-46-29,2.3390365,-1.882019,1.4262712,69.0,-0.1476054,-0.044124834,0.011871137
73.82145359180868,18.50351615343243,5.79,244.88419,18-46-29,0.36391458,-0.20780277,0.45167434,69.0,-0.4041688,0.0041335206,0.050966512
73.82145359180868,18.50351615343243,5.79,244.88419,18-46-29,-1.249672,1.2723866,-2.0038483,69.0,-0.3302541,-0.0031968616,0.10105747
73.82144269533455,18.50356279872358,5.58,249.89742,18-46-29,0.04599309,1.4119949,0.3750028,69.0,-0.4114992,0.030400727,0.09555969
73.82144269533455,18.50356279872358,5.58,249.89742,18-46-29,-0.88001037,1.0918131,-1.852932,69.0,-0.124392524,0.029789861,0.02225585
73.82144269533455,18.50356279872358,5.58,249.89742,18-46-29,0.5992449,0.85089016,-0.5446703,69.0,0.03931936,-0.0038077272,-0.055934906
73.82144269533455,18.50356279872358,5.58,249.89742,18-46-30,-0.8417572,-0.121925354,-1.1610966,69.0,0.068640895,0.05055928,-0.069373935
73.82144269533455,18.50356279872358,5.58,249.89742,18-46-30,-0.82439476,0.5050545,-0.5478482,69.0,0.17187712,0.013907365,-0.029056834
73.82144269533455,18.50356279872358,5.58,249.89742,18-46-30,0.7843746,-0.22465706,2.9759393,70.0,-0.16470963,0.067663506,0.051577378
73.82144269533455,18.50356279872358,5.58,249.89742,18-46-30,1.4104698,-0.79309464,-0.64004385,71.0,-0.13172291,-0.031296663,0.11877257
73.82144269533455,18.50356279872358,5.58,249.89742,18-46-30,0.02452755,0.70310783,-0.8227716,68.0,-0.08285369,-0.04351397,0.0705142
73.82144269533455,18.50356279872358,5.58,249.89742,18-46-30,-1.4022765,2.2218266,-3.3509479,67.0,-0.27649796,-0.058174733,0.012482002
73.82144269533455,18.50356279872358,5.58,249.89742,18-46-30,-2.4819624,0.42650986,-0.8660296,69.0,0.07658214,0.057278797,0.027753633
73.82144269533455,18.50356279872358,5.58,249.89742,18-46-30,-0.8373145,1.4962711,-4.3719826,70.0,-0.13905329,-0.013581571,0.03630575
73.82142903283238,18.5036125453189,6.0699997,255.366,18-46-30,-0.19194064,0.83959484,-5.609681,70.0,-0.28932613,-0.07405723,0.09250535
73.82142903283238,18.5036125453189,6.0699997,255.366,18-46-30,0.5087173,2.1408682,1.8057765,69.0,0.18409443,0.049337547,-0.011952605
73.82142903283238,18.5036125453189,6.0699997,255.366,18-46-31,-0.14820528,-0.032958984,-0.36512983,69.0,0.09368637,0.01573996,-0.11091277
73.82142903283238,18.5036125453189,6.0699997,255.366,18-46-31,1.3183702,0.3846655,0.27899337,70.0,-0.05169956,0.03162246,-0.04249587
73.82142903283238,18.5036125453189,6.0699997,255.366,18-46-31,0.8102064,0.015361786,2.4026697,70.0,0.12606223,0.052391876,-0.06693048
73.82142903283238,18.5036125453189,6.0699997,255.366,18-46-31,-0.25655755,-4.043579E-4,1.2370634,70.0,0.05703445,0.03162246,-0.052880578
73.82142903283238,18.5036125453189,6.0699997,255.366,18-46-31,-1.1603557,-0.34589005,0.7771743,70.0,0.103460215,0.023070343,-0.004011359
73.82142903283238,18.5036125453189,6.0699997,255.366,18-46-31,-0.37162817,-0.2193737,-0.07785791,69.0,-0.011993322,0.04383976,-0.0718174
73.82142903283238,18.5036125453189,6.0699997,255.366,18-46-31,1.2806339,-0.5148859,0.27487266,69.0,-0.11767301,-0.08138761,0.07723372
73.82142903283238,18.5036125453189,6.0699997,255.366,18-46-31,-0.90351754,1.0327349,-1.3790731,68.0,-0.15432492,-0.0019751312,-0.033943757
73.82140749134123,18.503668326884508,6.42,261.84073,18-46-31,-0.8437572,-0.60666656,-0.17960078,70.0,-0.012604185,0.023070343,-0.027835103
73.82140749134123,18.503668326884508,6.42,261.84073,18-46-31,1.2546061,-0.7877054,-0.3420803,71.0,-0.09629272,0.09698504,0.044857863
73.82140749134123,18.503668326884508,6.42,261.84073,18-46-32,0.34266976,-1.904007,2.075533,71.0,-0.12866858,-0.018468492,0.069903344
73.82140749134123,18.503668326884508,6.42,261.84073,18-46-32,-1.6629786,-0.2262106,1.6413208,70.0,-0.13599896,0.018183421,-0.0070656836
73.82140749134123,18.503668326884508,6.42,261.84073,18-46-32,-1.6149371,0.043445587,0.49732143,72.0,-0.2832175,0.029789861,-0.048604522
73.82140749134123,18.503668326884508,6.42,261.84073,18-46-32,0.16599724,-0.9116001,2.0728488,71.0,-0.11828387,0.043228894,-0.10541499
73.82140749134123,18.503668326884508,6.42,261.84073,18-46-32,2.0772614,0.7700815,7.192254,71.0,-0.44754022,-0.06855944,0.09372708
73.82140749134123,18.503668326884508,6.42,261.84073,18-46-32,0.73163676,-0.24019241,1.707455,73.0,-0.035206202,-0.09055059,0.18535687
73.82140749134123,18.503668326884508,6.42,261.84073,18-46-32,-4.877574,1.179492,1.7093298,70.0,0.21891375,0.13058263,-0.13779084
73.82138871587813,18.50372456945479,6.5699997,268.21838,18-46-32,1.3091894,-1.3036022,3.012658,70.0,0.32459342,0.34866154,-0.41573456
73.82138871587813,18.50372456945479,6.5699997,268.21838,18-46-32,-1.8748735,-1.3988705,-0.9051534,70.0,-0.03642793,0.18128444,-0.21659246
73.82138871587813,18.50372456945479,6.5699997,268.21838,18-46-32,3.3788662,-0.62435913,5.59851,72.0,0.10529281,-0.07650069,0.024699312
73.82138871587813,18.50372456945479,6.5699997,268.21838,18-46-33,1.0809808,0.41043854,-4.6876497,73.0,0.48525098,-0.10215703,0.064405546
73.82138871587813,18.50372456945479,6.5699997,268.21838,18-46-33,-1.0224636,0.15334511,-1.5913787,74.0,0.16576847,-0.059396464,0.13098986
73.82138871587813,18.50372456945479,6.5699997,268.21838,18-46-33,-0.80431056,-0.08874798,-2.1989617,74.0,0.02649119,-0.028242338,0.109609574
73.82138871587813,18.50372456945479,6.5699997,268.21838,18-46-33,-0.24918029,0.991662,-2.317186,75.0,0.21830288,-0.026409741,0.081509784
73.82138871587813,18.50372456945479,6.5699997,268.21838,18-46-33,1.2543973,0.20051289,-3.185988,74.0,0.11567752,-0.028853204,0.028364498
73.82138871587813,18.50372456945479,6.5699997,268.21838,18-46-33,0.51825094,-0.8563738,-5.1408806,74.0,0.12789482,-0.10276789,0.094337955
73.82138871587813,18.50372456945479,6.5699997,268.21838,18-46-33,1.7099015,-0.92733,2.7506585,73.0,-0.16898568,0.021848612,0.09128362
73.82138871587813,18.50372456945479,6.5699997,268.21838,18-46-33,-0.16518253,0.22365284,-0.63461924,73.0,-0.04803437,0.0053552515,0.04974478
73.8213764782995,18.50378072820604,6.37,274.25323,18-46-33,0.14224434,0.31947422,-3.713758,72.0,-0.16959655,0.05850053,0.08700757
73.8213764782995,18.50378072820604,6.37,274.25323,18-46-33,-0.11613208,-0.21576405,3.245449,71.0,-0.027264953,0.071939565,0.0582969
73.8213764782995,18.50378072820604,6.37,274.25323,18-46-34,-1.8643527,0.7160406,3.4248178,71.0,0.10407108,0.102482826,-0.19215785
73.8213764782995,18.50378072820604,6.37,274.25323,18-46-34,4.314526,-2.4467716,1.2416694,74.0,0.1248405,0.05055928,-0.16527978
73.8213764782995,18.50378072820604,6.37,274.25323,18-46-34,5.4249105,-0.6457138,2.5281672,74.0,0.08330166,-0.0710029,0.044857863
73.8213764782995,18.50378072820604,6.37,274.25323,18-46-34,1.9591908,0.061060905,1.47223,73.0,-0.3357519,-0.037405316,0.19207639
73.8213764782995,18.50378072820604,6.37,274.25323,18-46-34,0.82333994,2.598669,-4.493274,73.0,0.09674069,-0.119872116,0.1548136
73.8213764782995,18.50378072820604,6.37,274.25323,18-46-34,-3.0442326,1.5176029,-6.622245,71.0,0.70455164,-0.015414166,-0.058378365
73.8213764782995,18.50378072820604,6.37,274.25323,18-46-34,-3.613809,0.023889542,-3.64075,72.0,0.64957374,0.10920235,-0.15367334
73.8213764782995,18.50378072820604,6.37,274.25323,18-46-34,-0.24283883,-2.9837933,2.046872,72.0,0.27205902,-0.074668095,0.064405546
73.82135669700801,18.503836719319224,6.68,280.67575,18-46-34,-2.0017798,0.095389366,0.0045303106,72.0,0.21219423,0.1275283,0.062572956
73.82135669700801,18.503836719319224,6.68,280.67575,18-46-34,-0.7837848,-2.3871741,3.0857282,71.0,0.07841474,-0.0148033025,-0.16589065
73.82135669700801,18.503836719319224,6.68,280.67575,18-46-35,-2.3147953,-3.6010609,5.9745026,72.0,-0.70288193,0.118365325,-0.32593736
73.82135669700801,18.503836719319224,6.68,280.67575,18-46-35,2.2845547,-1.9226255,-3.4140246,73.0,-0.36446255,0.12019792,0.037527476
73.82135669700801,18.503836719319224,6.68,280.67575,18-46-35,5.7215724,1.8821316,-0.82659066,73.0,-0.88491976,0.39753073,-0.34548503
73.82135669700801,18.503836719319224,6.68,280.67575,18-46-35,0.98817956,3.2128353,-5.0020485,74.0,-0.4114992,0.066441774,-0.20254256
73.82135669700801,18.503836719319224,6.68,280.67575,18-46-35,2.3227835,2.3331833,4.3009853,76.0,0.48708358,-0.0068620536,-0.08464557
73.82135669700801,18.503836719319224,6.68,280.67575,18-46-35,3.9648063,3.5492039,-3.720603,78.0,-0.52328753,0.24053837,-0.14451036
73.82135669700801,18.503836719319224,6.68,280.67575,18-46-35,0.73722136,0.6749773,-3.1856823,78.0,-0.39256236,0.04383976,0.02531017
73.82135669700801,18.503836719319224,6.68,280.67575,18-46-35,0.78111196,-0.59541035,-0.0275352,78.0,-0.114618674,-0.11437433,0.17191784
73.8213402684778,18.50390251725912,7.69,287.88052,18-46-35,0.31763074,0.8425865,3.5504413,78.0,0.23296365,-0.19806288,0.23728041
73.8213402684778,18.50390251725912,7.69,287.88052,18-46-35,-0.584458,0.9948635,-0.9025182,78.0,0.1248405,-0.06489425,0.08334237
73.8213402684778,18.50390251725912,7.69,287.88052,18-46-36,0.426063,-0.09738827,2.3382595,78.0,0.15416203,-0.04168137,0.10411179
73.8213402684778,18.50390251725912,7.69,287.88052,18-46-36,0.38506484,-1.2341871,-1.4376827,77.0,0.11201233,-0.045346566,0.1444289
73.8213402684778,18.50390251725912,7.69,287.88052,18-46-36,0.8251178,-1.1286087,2.098962,75.0,0.091853775,0.021237748,0.0582969
73.8213402684778,18.50390251725912,7.69,287.88052,18-46-36,0.3564067,1.1953526,1.2599862,73.0,-0.16837482,0.016350826,0.01797979
73.8213402684778,18.50390251725912,7.69,287.88052,18-46-36,0.13418885,1.3115511,-1.7797525,72.0,-0.25572854,0.05422447,0.020423252
73.8213402684778,18.50390251725912,7.69,287.88052,18-46-36,0.49502137,1.5025978,2.2649782,72.0,0.34291938,0.01573996,-0.013174336
73.8213402684778,18.50390251725912,7.69,287.88052,18-46-36,0.18191476,1.3275833,-0.58420134,72.0,0.2867198,-0.062450793,0.019812386
73.8213402684778,18.50390251725912,7.69,287.88052,18-46-36,-1.4789402,-0.7476406,1.5260202,72.0,0.28061113,0.07010697,-0.045550194
73.82131730206311,18.50397191941738,7.94,295.78024,18-46-36,-2.2758863,0.7771034,1.517309,71.0,0.08879945,-0.0710029,0.11022045
73.82131730206311,18.50397191941738,7.94,295.78024,18-46-36,-0.5452578,-1.02318,2.014323,70.0,-0.17265087,-0.0013642665,-0.023559047
73.82131730206311,18.50397191941738,7.94,295.78024,18-46-37,-1.656383,-1.1917801,-0.71035683,69.0,-0.20624846,0.05422447,0.008205947
73.82131730206311,18.50397191941738,7.94,295.78024,18-46-37,-1.3938141,-0.041924477,-6.4546185,70.0,-0.5171789,-0.033740126,0.07540113
73.82131730206311,18.50397191941738,7.94,295.78024,18-46-37,0.6748339,-1.1185799,1.4698486,70.0,-0.15371406,-0.02152282,0.014314599
73.82131730206311,18.50397191941738,7.94,295.78024,18-46-37,-3.0166852,0.26096344,-1.9065988,69.0,0.013663019,-0.04717916,-0.0076765493
73.82131730206311,18.50397191941738,7.94,295.78024,18-46-37,-1.2751542,3.1934032,1.5220466,70.0,0.0063326363,-0.04717916,0.040581804
73.82131730206311,18.50397191941738,7.94,295.78024,18-46-37,0.75014955,1.9557486,-4.218555,70.0,-0.30643037,-0.034961857,-0.002178762
73.82131730206311,18.50397191941738,7.94,295.78024,18-46-37,-0.86635625,2.4995937,-3.5672243,70.0,-0.037038796,0.071939565,-0.07853692
73.82131730206311,18.50397191941738,7.94,295.78024,18-46-37,-0.45982686,2.2416992,-0.54322076,70.0,0.17676404,0.07560476,-0.17505363
73.8212863728404,18.504037423990667,6.7999997,303.70947,18-46-37,2.0432482,2.3248816,-0.115787745,70.0,0.37101918,0.048115816,-0.24469227
73.8212863728404,18.504037423990667,6.7999997,303.70947,18-46-37,0.889114,0.36064243,1.7660568,70.0,0.56160915,-0.027631473,-0.13412565
73.8212863728404,18.504037423990667,6.7999997,303.70947,18-46-38,0.1332555,0.6994095,3.9018586,71.0,0.29893708,-0.028853204,-0.05898923
73.8212863728404,18.504037423990667,6.7999997,303.70947,18-46-38,1.0696895,-1.5836325,2.8089416,71.0,0.15049684,-0.09421578,0.1022792
73.8212863728404,18.504037423990667,6.7999997,303.70947,18-46-38,0.43915963,-1.0744171,-2.3420467,71.0,-0.21052453,-0.07527896,0.15908967
73.8212863728404,18.504037423990667,6.7999997,303.70947,18-46-38,0.23027152,0.18628979,-0.9359242,70.0,-0.19097683,-0.009916379,0.094337955
73.8212863728404,18.504037423990667,6.7999997,303.70947,18-46-38,-0.39892906,0.55064774,-1.7907286,69.0,-0.19464202,-0.036183584,0.051577378
73.8212863728404,18.504037423990667,6.7999997,303.70947,18-46-38,-1.0132617,1.1754284,-2.7686088,69.0,-0.23373741,0.010853039,-0.0107308775
73.8212863728404,18.504037423990667,6.7999997,303.70947,18-46-38,-0.9773039,1.3327236,-1.9725274,70.0,-0.06697119,0.010242173,-0.02172645
73.82126013748348,18.504084907472134,5.5699997,309.65024,18-46-38,-0.8089264,0.5280056,-1.5707037,71.0,0.041151956,0.049948413,-0.053491443
73.82126013748348,18.504084907472134,5.5699997,309.65024,18-46-38,-0.20519173,0.3886032,-1.4954841,72.0,0.042373687,0.016350826,-0.044939328
73.82126013748348,18.504084907472134,5.5699997,309.65024,18-46-38,-0.31080887,0.52706146,-0.5210353,72.0,0.057645317,0.010242173,-0.026002508
73.82126013748348,18.504084907472134,5.5699997,309.65024,18-46-39,0.02072686,0.16908169,0.79247195,72.0,-0.022988897,0.012685634,-0.026613371
73.82126013748348,18.504084907472134,5.5699997,309.65024,18-46-39,0.5928931,-0.015483856,0.5187213,72.0,0.024658594,-0.030074935,-0.010120012
73.82126013748348,18.504084907472134,5.5699997,309.65024,18-46-39,0.4399556,0.036328316,0.3270116,72.0,0.009386962,-0.022744551,0.003319025
73.82126013748348,18.504084907472134,5.5699997,309.65024,18-46-39,0.05082155,0.29432487,1.1801214,72.0,8.3484873E-4,-0.014192437,-0.016228663
73.82126013748348,18.504084907472134,5.5699997,309.65024,18-46-39,0.13729922,0.052264214,0.71828747,72.0,-0.015658513,-0.0031968616,-0.022337316
73.82126013748348,18.504084907472134,5.5699997,309.65024,18-46-39,0.07234774,0.28576756,-0.12465894,72.0,0.04787147,-0.03190753,0.0045407563
73.82126013748348,18.504084907472134,5.5699997,309.65024,18-46-39,0.08489376,0.6802149,-1.3868494,72.0,0.029545516,-0.0068620536,-0.011952605
73.82124530151486,18.50411135237664,3.21,312.97015,18-46-39,0.6001589,0.07159424,-1.6482196,72.0,-0.0046629375,0.017572556,-0.014396068
73.82124530151486,18.50411135237664,3.21,312.97015,18-46-39,0.04221826,0.27529144,-0.56577724,72.0,0.06375397,-0.016025033,0.017368924
73.82124530151486,18.50411135237664,3.21,312.97015,18-46-39,0.34790158,-0.0323658,-0.67778254,71.0,-0.032151874,0.026124671,-0.029056834
73.82124530151486,18.50411135237664,3.21,312.97015,18-46-40,0.32560426,0.35024738,0.25534385,71.0,-0.024821494,-0.015414166,2.6469678E-4
73.82124530151486,18.50411135237664,3.21,312.97015,18-46-40,-0.21149158,0.23708344,0.2747862,72.0,0.0509258,-0.020301089,0.005762484
73.82124530151486,18.50411135237664,3.21,312.97015,18-46-40,-0.08594533,0.32613373,0.5116042,72.0,0.009386962,0.02490294,-0.015006933
73.82124530151486,18.50411135237664,3.21,312.97015,18-46-40,0.3188209,0.22104454,-0.026283205,72.0,-0.0046629375,-0.01113811,-0.025391642
73.82124530151486,18.50411135237664,3.21,312.97015,18-46-40,-0.19502091,0.14694977,0.6943591,72.0,0.0014457144,-0.0056403233,-0.004011359
73.82124530151486,18.50411135237664,3.21,312.97015,18-46-40,0.19818975,0.010146141,-0.026996285,72.0,0.0032783104,0.01451823,-0.026613371
73.82124530151486,18.50411135237664,3.21,312.97015,18-46-40,0.2542695,0.12963009,-0.27591947,72.0,-0.012604185,-0.022133686,0.005151622
73.82123968563974,18.50410971790552,0.5,313.09497,18-46-40,-0.16535759,0.18206882,0.78099746,72.0,0.02893465,-0.004418593,0.0014864281
73.82123968563974,18.50410971790552,0.5,313.09497,18-46-40,0.017594114,0.096936226,-0.3432036,72.0,-0.042536583,0.0077987127,-0.016228663
73.82123968563974,18.50410971790552,0.5,313.09497,18-46-40,0.09629063,0.14237118,-0.3904292,72.0,-0.019934569,0.009631308,-0.02050472
73.82123968563974,18.50410971790552,0.5,313.09497,18-46-41,-0.25686362,0.24957943,0.23580024,72.0,-0.019323703,0.0016900599,-0.008287415
